subject,block,trial,mu1,mu2,choice,reward,RT
1,1,1,18.938,9.075,1,20.817,0.000
1,1,2,18.938,9.075,1,24.660,0.000
1,1,3,18.938,9.075,1,25.242,0.000
1,1,4,18.938,9.075,1,17.634,0.000
1,1,5,18.938,9.075,1,24.580,0.000
1,1,6,18.938,9.075,1,18.591,0.000
1,1,7,18.938,9.075,1,12.020,0.000
1,1,8,18.938,9.075,1,18.757,0.000
1,1,9,18.938,9.075,1,20.030,0.000
1,1,10,18.938,9.075,1,21.367,0.000
1,2,1,0.011,-11.556,1,-0.137,0.000
1,2,2,0.011,-11.556,2,-12.476,0.000
1,2,3,0.011,-11.556,1,0.519,0.000
1,2,4,0.011,-11.556,1,-4.901,0.000
1,2,5,0.011,-11.556,1,1.756,0.000
1,2,6,0.011,-11.556,1,3.495,0.000
1,2,7,0.011,-11.556,1,5.817,0.000
1,2,8,0.011,-11.556,1,3.004,0.000
1,2,9,0.011,-11.556,1,-2.285,0.000
1,2,10,0.011,-11.556,1,2.090,0.000
1,3,1,-12.255,8.053,1,-13.049,0.000
1,3,2,-12.255,8.053,2,4.642,0.000
1,3,3,-12.255,8.053,2,9.567,0.000
1,3,4,-12.255,8.053,2,7.933,0.000
1,3,5,-12.255,8.053,2,6.609,0.000
1,3,6,-12.255,8.053,2,7.399,0.000
1,3,7,-12.255,8.053,2,9.857,0.000
1,3,8,-12.255,8.053,2,10.326,0.000
1,3,9,-12.255,8.053,2,11.955,0.000
1,3,10,-12.255,8.053,2,2.797,0.000
1,4,1,3.018,6.603,1,-0.581,0.000
1,4,2,3.018,6.603,2,7.974,0.000
1,4,3,3.018,6.603,2,0.654,0.000
1,4,4,3.018,6.603,2,1.947,0.000
1,4,5,3.018,6.603,2,0.538,0.000
1,4,6,3.018,6.603,2,9.008,0.000
1,4,7,3.018,6.603,2,3.635,0.000
1,4,8,3.018,6.603,2,7.882,0.000
1,4,9,3.018,6.603,2,7.311,0.000
1,4,10,3.018,6.603,2,2.906,0.000
1,5,1,5.834,1.990,1,3.130,0.000
1,5,2,5.834,1.990,2,6.509,0.000
1,5,3,5.834,1.990,2,2.804,0.000
1,5,4,5.834,1.990,2,-0.270,0.000
1,5,5,5.834,1.990,1,8.765,0.000
1,5,6,5.834,1.990,1,1.212,0.000
1,5,7,5.834,1.990,1,1.731,0.000
1,5,8,5.834,1.990,1,13.930,0.000
1,5,9,5.834,1.990,1,2.734,0.000
1,5,10,5.834,1.990,1,6.477,0.000
1,6,1,1.314,2.186,1,4.120,0.000
1,6,2,1.314,2.186,2,4.153,0.000
1,6,3,1.314,2.186,2,6.454,0.000
1,6,4,1.314,2.186,2,1.727,0.000
1,6,5,1.314,2.186,2,5.528,0.000
1,6,6,1.314,2.186,2,4.473,0.000
1,6,7,1.314,2.186,2,4.408,0.000
1,6,8,1.314,2.186,2,0.377,0.000
1,6,9,1.314,2.186,2,1.403,0.000
1,6,10,1.314,2.186,2,3.545,0.000
1,7,1,10.527,4.507,1,7.481,0.000
1,7,2,10.527,4.507,1,16.460,0.000
1,7,3,10.527,4.507,1,15.154,0.000
1,7,4,10.527,4.507,1,14.623,0.000
1,7,5,10.527,4.507,1,17.197,0.000
1,7,6,10.527,4.507,1,11.360,0.000
1,7,7,10.527,4.507,1,5.313,0.000
1,7,8,10.527,4.507,1,9.217,0.000
1,7,9,10.527,4.507,1,15.507,0.000
1,7,10,10.527,4.507,1,10.599,0.000
1,8,1,-0.507,7.290,1,3.476,0.000
1,8,2,-0.507,7.290,2,10.430,0.000
1,8,3,-0.507,7.290,2,8.910,0.000
1,8,4,-0.507,7.290,2,10.604,0.000
1,8,5,-0.507,7.290,2,11.280,0.000
1,8,6,-0.507,7.290,2,2.036,0.000
1,8,7,-0.507,7.290,2,6.884,0.000
1,8,8,-0.507,7.290,2,4.760,0.000
1,8,9,-0.507,7.290,2,10.524,0.000
1,8,10,-0.507,7.290,2,14.099,0.000
1,9,1,-11.536,-7.169,1,-15.158,0.000
1,9,2,-11.536,-7.169,2,-11.956,0.000
1,9,3,-11.536,-7.169,2,-5.401,0.000
1,9,4,-11.536,-7.169,2,-3.745,0.000
1,9,5,-11.536,-7.169,2,-12.514,0.000
1,9,6,-11.536,-7.169,2,-10.940,0.000
1,9,7,-11.536,-7.169,2,-6.934,0.000
1,9,8,-11.536,-7.169,2,-8.723,0.000
1,9,9,-11.536,-7.169,2,-0.811,0.000
1,9,10,-11.536,-7.169,2,-9.324,0.000
1,10,1,6.498,-7.287,1,5.595,0.000
1,10,2,6.498,-7.287,2,-9.093,0.000
1,10,3,6.498,-7.287,1,9.943,0.000
1,10,4,6.498,-7.287,1,11.962,0.000
1,10,5,6.498,-7.287,1,4.968,0.000
1,10,6,6.498,-7.287,1,4.286,0.000
1,10,7,6.498,-7.287,1,6.760,0.000
1,10,8,6.498,-7.287,1,3.446,0.000
1,10,9,6.498,-7.287,1,3.004,0.000
1,10,10,6.498,-7.287,1,7.221,0.000
1,11,1,-8.611,-1.655,1,-15.626,0.000
1,11,2,-8.611,-1.655,2,1.108,0.000
1,11,3,-8.611,-1.655,2,3.159,0.000
1,11,4,-8.611,-1.655,2,-0.815,0.000
1,11,5,-8.611,-1.655,2,-0.701,0.000
1,11,6,-8.611,-1.655,2,-2.331,0.000
1,11,7,-8.611,-1.655,2,3.396,0.000
1,11,8,-8.611,-1.655,2,-4.816,0.000
1,11,9,-8.611,-1.655,2,-5.729,0.000
1,11,10,-8.611,-1.655,2,1.854,0.000
1,12,1,4.542,-4.051,1,-0.036,0.000
1,12,2,4.542,-4.051,2,-4.505,0.000
1,12,3,4.542,-4.051,1,6.751,0.000
1,12,4,4.542,-4.051,1,4.425,0.000
1,12,5,4.542,-4.051,1,8.125,0.000
1,12,6,4.542,-4.051,1,3.456,0.000
1,12,7,4.542,-4.051,1,9.170,0.000
1,12,8,4.542,-4.051,1,-1.402,0.000
1,12,9,4.542,-4.051,1,10.347,0.000
1,12,10,4.542,-4.051,1,3.251,0.000
1,13,1,20.834,-14.334,1,13.357,0.000
1,13,2,20.834,-14.334,1,17.852,0.000
1,13,3,20.834,-14.334,1,21.078,0.000
1,13,4,20.834,-14.334,1,21.865,0.000
1,13,5,20.834,-14.334,1,15.999,0.000
1,13,6,20.834,-14.334,1,20.066,0.000
1,13,7,20.834,-14.334,1,20.521,0.000
1,13,8,20.834,-14.334,1,20.737,0.000
1,13,9,20.834,-14.334,1,21.235,0.000
1,13,10,20.834,-14.334,1,15.077,0.000
1,14,1,5.400,9.344,1,8.028,0.000
1,14,2,5.400,9.344,1,8.122,0.000
1,14,3,5.400,9.344,1,2.889,0.000
1,14,4,5.400,9.344,1,8.929,0.000
1,14,5,5.400,9.344,1,9.010,0.000
1,14,6,5.400,9.344,1,5.341,0.000
1,14,7,5.400,9.344,1,13.733,0.000
1,14,8,5.400,9.344,1,7.721,0.000
1,14,9,5.400,9.344,1,5.258,0.000
1,14,10,5.400,9.344,1,3.735,0.000
1,15,1,-0.505,0.384,1,-1.539,0.000
1,15,2,-0.505,0.384,2,2.478,0.000
1,15,3,-0.505,0.384,2,3.182,0.000
1,15,4,-0.505,0.384,2,-2.364,0.000
1,15,5,-0.505,0.384,2,-4.759,0.000
1,15,6,-0.505,0.384,2,-0.357,0.000
1,15,7,-0.505,0.384,2,-0.509,0.000
1,15,8,-0.505,0.384,2,3.063,0.000
1,15,9,-0.505,0.384,2,-5.096,0.000
1,15,10,-0.505,0.384,2,-2.130,0.000
1,16,1,-10.797,-7.544,1,-11.139,0.000
1,16,2,-10.797,-7.544,2,-8.861,0.000
1,16,3,-10.797,-7.544,2,-7.320,0.000
1,16,4,-10.797,-7.544,2,-9.503,0.000
1,16,5,-10.797,-7.544,2,-10.081,0.000
1,16,6,-10.797,-7.544,2,-6.040,0.000
1,16,7,-10.797,-7.544,2,-10.425,0.000
1,16,8,-10.797,-7.544,2,-7.374,0.000
1,16,9,-10.797,-7.544,2,-11.257,0.000
1,16,10,-10.797,-7.544,2,-5.797,0.000
1,17,1,-20.427,2.273,1,-20.139,0.000
1,17,2,-20.427,2.273,2,4.554,0.000
1,17,3,-20.427,2.273,2,-2.111,0.000
1,17,4,-20.427,2.273,2,0.247,0.000
1,17,5,-20.427,2.273,2,-2.583,0.000
1,17,6,-20.427,2.273,2,6.907,0.000
1,17,7,-20.427,2.273,2,-1.014,0.000
1,17,8,-20.427,2.273,2,4.180,0.000
1,17,9,-20.427,2.273,2,-3.724,0.000
1,17,10,-20.427,2.273,2,6.981,0.000
1,18,1,10.130,5.239,1,12.742,0.000
1,18,2,10.130,5.239,1,13.255,0.000
1,18,3,10.130,5.239,1,4.928,0.000
1,18,4,10.130,5.239,1,5.413,0.000
1,18,5,10.130,5.239,1,4.677,0.000
1,18,6,10.130,5.239,1,10.081,0.000
1,18,7,10.130,5.239,1,7.254,0.000
1,18,8,10.130,5.239,1,8.457,0.000
1,18,9,10.130,5.239,1,6.576,0.000
1,18,10,10.130,5.239,1,10.171,0.000
1,19,1,2.060,-5.803,1,2.715,0.000
1,19,2,2.060,-5.803,2,-5.783,0.000
1,19,3,2.060,-5.803,1,7.382,0.000
1,19,4,2.060,-5.803,1,-0.381,0.000
1,19,5,2.060,-5.803,1,-0.771,0.000
1,19,6,2.060,-5.803,1,-0.174,0.000
1,19,7,2.060,-5.803,1,-0.353,0.000
1,19,8,2.060,-5.803,1,-4.538,0.000
1,19,9,2.060,-5.803,1,2.502,0.000
1,19,10,2.060,-5.803,1,5.362,0.000
1,20,1,8.011,0.384,1,12.576,0.000
1,20,2,8.011,0.384,1,5.893,0.000
1,20,3,8.011,0.384,1,10.512,0.000
1,20,4,8.011,0.384,1,8.521,0.000
1,20,5,8.011,0.384,1,8.042,0.000
1,20,6,8.011,0.384,1,8.473,0.000
1,20,7,8.011,0.384,1,6.111,0.000
1,20,8,8.011,0.384,1,5.417,0.000
1,20,9,8.011,0.384,1,12.267,0.000
1,20,10,8.011,0.384,1,7.204,0.000
1,21,1,14.679,-0.474,1,11.458,0.000
1,21,2,14.679,-0.474,1,10.698,0.000
1,21,3,14.679,-0.474,1,17.818,0.000
1,21,4,14.679,-0.474,1,14.567,0.000
1,21,5,14.679,-0.474,1,18.971,0.000
1,21,6,14.679,-0.474,1,15.663,0.000
1,21,7,14.679,-0.474,1,12.379,0.000
1,21,8,14.679,-0.474,1,17.327,0.000
1,21,9,14.679,-0.474,1,12.545,0.000
1,21,10,14.679,-0.474,1,17.187,0.000
1,22,1,-0.506,2.737,1,-4.393,0.000
1,22,2,-0.506,2.737,2,3.097,0.000
1,22,3,-0.506,2.737,2,-3.525,0.000
1,22,4,-0.506,2.737,2,3.897,0.000
1,22,5,-0.506,2.737,2,1.501,0.000
1,22,6,-0.506,2.737,2,7.674,0.000
1,22,7,-0.506,2.737,2,4.635,0.000
1,22,8,-0.506,2.737,2,3.081,0.000
1,22,9,-0.506,2.737,2,4.732,0.000
1,22,10,-0.506,2.737,2,0.895,0.000
1,23,1,-1.990,-0.939,1,2.567,0.000
1,23,2,-1.990,-0.939,2,4.237,0.000
1,23,3,-1.990,-0.939,2,-7.965,0.000
1,23,4,-1.990,-0.939,1,0.918,0.000
1,23,5,-1.990,-0.939,1,-0.293,0.000
1,23,6,-1.990,-0.939,1,-0.489,0.000
1,23,7,-1.990,-0.939,1,0.012,0.000
1,23,8,-1.990,-0.939,1,0.079,0.000
1,23,9,-1.990,-0.939,1,-4.758,0.000
1,23,10,-1.990,-0.939,1,-0.389,0.000
1,24,1,-9.690,12.928,1,-4.727,0.000
1,24,2,-9.690,12.928,2,16.949,0.000
1,24,3,-9.690,12.928,2,13.128,0.000
1,24,4,-9.690,12.928,2,16.147,0.000
1,24,5,-9.690,12.928,2,15.110,0.000
1,24,6,-9.690,12.928,2,20.136,0.000
1,24,7,-9.690,12.928,2,13.589,0.000
1,24,8,-9.690,12.928,2,14.990,0.000
1,24,9,-9.690,12.928,2,10.853,0.000
1,24,10,-9.690,12.928,2,10.202,0.000
1,25,1,9.601,6.799,1,10.954,0.000
1,25,2,9.601,6.799,1,11.164,0.000
1,25,3,9.601,6.799,1,8.139,0.000
1,25,4,9.601,6.799,1,9.817,0.000
1,25,5,9.601,6.799,1,4.901,0.000
1,25,6,9.601,6.799,1,7.568,0.000
1,25,7,9.601,6.799,1,6.274,0.000
1,25,8,9.601,6.799,1,8.168,0.000
1,25,9,9.601,6.799,1,13.556,0.000
1,25,10,9.601,6.799,1,4.412,0.000
1,26,1,-10.234,-8.006,1,-11.777,0.000
1,26,2,-10.234,-8.006,2,-14.327,0.000
1,26,3,-10.234,-8.006,1,-9.670,0.000
1,26,4,-10.234,-8.006,2,-10.027,0.000
1,26,5,-10.234,-8.006,2,-7.664,0.000
1,26,6,-10.234,-8.006,2,-2.170,0.000
1,26,7,-10.234,-8.006,2,-6.400,0.000
1,26,8,-10.234,-8.006,2,-10.714,0.000
1,26,9,-10.234,-8.006,2,-7.015,0.000
1,26,10,-10.234,-8.006,2,-10.078,0.000
1,27,1,-6.109,12.975,1,-2.495,0.000
1,27,2,-6.109,12.975,2,11.677,0.000
1,27,3,-6.109,12.975,2,8.538,0.000
1,27,4,-6.109,12.975,2,11.558,0.000
1,27,5,-6.109,12.975,2,18.324,0.000
1,27,6,-6.109,12.975,2,14.578,0.000
1,27,7,-6.109,12.975,2,12.574,0.000
1,27,8,-6.109,12.975,2,14.317,0.000
1,27,9,-6.109,12.975,2,10.071,0.000
1,27,10,-6.109,12.975,2,10.843,0.000
1,28,1,6.685,-0.495,1,9.461,0.000
1,28,2,6.685,-0.495,1,7.481,0.000
1,28,3,6.685,-0.495,1,2.802,0.000
1,28,4,6.685,-0.495,1,8.666,0.000
1,28,5,6.685,-0.495,1,9.134,0.000
1,28,6,6.685,-0.495,1,11.572,0.000
1,28,7,6.685,-0.495,1,8.578,0.000
1,28,8,6.685,-0.495,1,8.438,0.000
1,28,9,6.685,-0.495,1,5.267,0.000
1,28,10,6.685,-0.495,1,7.836,0.000
1,29,1,-2.795,-1.076,1,-2.300,0.000
1,29,2,-2.795,-1.076,2,-2.645,0.000
1,29,3,-2.795,-1.076,1,-7.196,0.000
1,29,4,-2.795,-1.076,2,-4.507,0.000
1,29,5,-2.795,-1.076,2,-0.938,0.000
1,29,6,-2.795,-1.076,2,0.001,0.000
1,29,7,-2.795,-1.076,2,-4.229,0.000
1,29,8,-2.795,-1.076,2,-1.014,0.000
1,29,9,-2.795,-1.076,2,-0.151,0.000
1,29,10,-2.795,-1.076,2,-6.289,0.000
1,30,1,-4.000,3.910,1,-2.637,0.000
1,30,2,-4.000,3.910,2,1.304,0.000
1,30,3,-4.000,3.910,2,7.731,0.000
1,30,4,-4.000,3.910,2,4.362,0.000
1,30,5,-4.000,3.910,2,-2.830,0.000
1,30,6,-4.000,3.910,2,5.062,0.000
1,30,7,-4.000,3.910,2,1.780,0.000
1,30,8,-4.000,3.910,2,2.565,0.000
1,30,9,-4.000,3.910,2,2.184,0.000
1,30,10,-4.000,3.910,2,3.826,0.000
1,31,1,13.043,-1.299,1,13.845,0.000
1,31,2,13.043,-1.299,1,12.943,0.000
1,31,3,13.043,-1.299,1,13.757,0.000
1,31,4,13.043,-1.299,1,14.461,0.000
1,31,5,13.043,-1.299,1,14.079,0.000
1,31,6,13.043,-1.299,1,13.233,0.000
1,31,7,13.043,-1.299,1,18.690,0.000
1,31,8,13.043,-1.299,1,12.193,0.000
1,31,9,13.043,-1.299,1,6.693,0.000
1,31,10,13.043,-1.299,1,9.038,0.000
1,32,1,-0.161,2.460,1,0.055,0.000
1,32,2,-0.161,2.460,2,-1.456,0.000
1,32,3,-0.161,2.460,1,1.986,0.000
1,32,4,-0.161,2.460,1,2.446,0.000
1,32,5,-0.161,2.460,1,-1.913,0.000
1,32,6,-0.161,2.460,1,-3.443,0.000
1,32,7,-0.161,2.460,1,2.110,0.000
1,32,8,-0.161,2.460,1,0.434,0.000
1,32,9,-0.161,2.460,1,-1.373,0.000
1,32,10,-0.161,2.460,1,-1.080,0.000
1,33,1,-10.562,0.226,1,-9.588,0.000
1,33,2,-10.562,0.226,2,4.483,0.000
1,33,3,-10.562,0.226,2,3.227,0.000
1,33,4,-10.562,0.226,2,-2.637,0.000
1,33,5,-10.562,0.226,2,4.815,0.000
1,33,6,-10.562,0.226,2,-1.323,0.000
1,33,7,-10.562,0.226,2,-2.520,0.000
1,33,8,-10.562,0.226,2,-0.284,0.000
1,33,9,-10.562,0.226,2,-0.237,0.000
1,33,10,-10.562,0.226,2,5.565,0.000
1,34,1,-10.269,-2.774,1,-10.840,0.000
1,34,2,-10.269,-2.774,2,-3.841,0.000
1,34,3,-10.269,-2.774,2,-1.827,0.000
1,34,4,-10.269,-2.774,2,-5.486,0.000
1,34,5,-10.269,-2.774,2,-1.163,0.000
1,34,6,-10.269,-2.774,2,0.104,0.000
1,34,7,-10.269,-2.774,2,-3.691,0.000
1,34,8,-10.269,-2.774,2,-2.046,0.000
1,34,9,-10.269,-2.774,2,-2.247,0.000
1,34,10,-10.269,-2.774,2,1.237,0.000
1,35,1,7.307,-10.463,1,12.183,0.000
1,35,2,7.307,-10.463,1,7.863,0.000
1,35,3,7.307,-10.463,1,1.637,0.000
1,35,4,7.307,-10.463,1,10.470,0.000
1,35,5,7.307,-10.463,1,8.703,0.000
1,35,6,7.307,-10.463,1,9.120,0.000
1,35,7,7.307,-10.463,1,6.401,0.000
1,35,8,7.307,-10.463,1,5.859,0.000
1,35,9,7.307,-10.463,1,5.009,0.000
1,35,10,7.307,-10.463,1,2.764,0.000
1,36,1,-1.704,-13.090,1,-1.943,0.000
1,36,2,-1.704,-13.090,2,-12.794,0.000
1,36,3,-1.704,-13.090,1,-3.469,0.000
1,36,4,-1.704,-13.090,1,-9.448,0.000
1,36,5,-1.704,-13.090,1,-3.156,0.000
1,36,6,-1.704,-13.090,1,-1.676,0.000
1,36,7,-1.704,-13.090,1,3.272,0.000
1,36,8,-1.704,-13.090,1,-1.309,0.000
1,36,9,-1.704,-13.090,1,-2.859,0.000
1,36,10,-1.704,-13.090,1,-6.227,0.000
1,37,1,-20.180,0.356,1,-18.781,0.000
1,37,2,-20.180,0.356,2,-3.095,0.000
1,37,3,-20.180,0.356,2,0.480,0.000
1,37,4,-20.180,0.356,2,-0.361,0.000
1,37,5,-20.180,0.356,2,-1.541,0.000
1,37,6,-20.180,0.356,2,2.696,0.000
1,37,7,-20.180,0.356,2,-2.318,0.000
1,37,8,-20.180,0.356,2,0.902,0.000
1,37,9,-20.180,0.356,2,-5.473,0.000
1,37,10,-20.180,0.356,2,-2.727,0.000
1,38,1,-7.111,0.829,1,-6.619,0.000
1,38,2,-7.111,0.829,2,3.869,0.000
1,38,3,-7.111,0.829,2,3.041,0.000
1,38,4,-7.111,0.829,2,3.846,0.000
1,38,5,-7.111,0.829,2,-2.781,0.000
1,38,6,-7.111,0.829,2,-3.710,0.000
1,38,7,-7.111,0.829,2,-6.094,0.000
1,38,8,-7.111,0.829,2,3.775,0.000
1,38,9,-7.111,0.829,2,-0.438,0.000
1,38,10,-7.111,0.829,2,-3.188,0.000
1,39,1,-2.512,-11.255,1,1.505,0.000
1,39,2,-2.512,-11.255,2,-10.382,0.000
1,39,3,-2.512,-11.255,1,-6.588,0.000
1,39,4,-2.512,-11.255,1,0.059,0.000
1,39,5,-2.512,-11.255,1,-1.114,0.000
1,39,6,-2.512,-11.255,1,-3.095,0.000
1,39,7,-2.512,-11.255,1,-3.769,0.000
1,39,8,-2.512,-11.255,1,-5.541,0.000
1,39,9,-2.512,-11.255,1,-5.125,0.000
1,39,10,-2.512,-11.255,1,2.207,0.000
1,40,1,-8.182,2.863,1,-7.850,0.000
1,40,2,-8.182,2.863,2,0.709,0.000
1,40,3,-8.182,2.863,2,0.683,0.000
1,40,4,-8.182,2.863,2,6.078,0.000
1,40,5,-8.182,2.863,2,2.929,0.000
1,40,6,-8.182,2.863,2,6.794,0.000
1,40,7,-8.182,2.863,2,1.935,0.000
1,40,8,-8.182,2.863,2,-0.858,0.000
1,40,9,-8.182,2.863,2,1.079,0.000
1,40,10,-8.182,2.863,2,4.797,0.000
1,41,1,-11.619,-7.890,1,-15.172,0.000
1,41,2,-11.619,-7.890,2,-5.831,0.000
1,41,3,-11.619,-7.890,2,-6.601,0.000
1,41,4,-11.619,-7.890,2,-15.266,0.000
1,41,5,-11.619,-7.890,1,-13.167,0.000
1,41,6,-11.619,-7.890,1,-12.380,0.000
1,41,7,-11.619,-7.890,1,-8.384,0.000
1,41,8,-11.619,-7.890,1,-11.924,0.000
1,41,9,-11.619,-7.890,1,-12.697,0.000
1,41,10,-11.619,-7.890,1,-13.829,0.000
1,42,1,-12.651,-12.300,1,-11.169,0.000
1,42,2,-12.651,-12.300,2,-9.593,0.000
1,42,3,-12.651,-12.300,1,-7.092,0.000
1,42,4,-12.651,-12.300,2,-10.723,0.000
1,42,5,-12.651,-12.300,1,-8.816,0.000
1,42,6,-12.651,-12.300,1,-16.907,0.000
1,42,7,-12.651,-12.300,1,-14.855,0.000
1,42,8,-12.651,-12.300,1,-11.805,0.000
1,42,9,-12.651,-12.300,1,-15.176,0.000
1,42,10,-12.651,-12.300,1,-9.304,0.000
1,43,1,-9.867,-4.696,1,-9.361,0.000
1,43,2,-9.867,-4.696,2,-2.811,0.000
1,43,3,-9.867,-4.696,2,-7.114,0.000
1,43,4,-9.867,-4.696,2,-8.415,0.000
1,43,5,-9.867,-4.696,2,-1.185,0.000
1,43,6,-9.867,-4.696,2,-5.268,0.000
1,43,7,-9.867,-4.696,2,0.985,0.000
1,43,8,-9.867,-4.696,2,-14.109,0.000
1,43,9,-9.867,-4.696,2,-5.181,0.000
1,43,10,-9.867,-4.696,2,-0.818,0.000
1,44,1,17.745,-1.445,1,17.376,0.000
1,44,2,17.745,-1.445,1,13.948,0.000
1,44,3,17.745,-1.445,1,17.869,0.000
1,44,4,17.745,-1.445,1,18.274,0.000
1,44,5,17.745,-1.445,1,18.083,0.000
1,44,6,17.745,-1.445,1,15.552,0.000
1,44,7,17.745,-1.445,1,18.110,0.000
1,44,8,17.745,-1.445,1,23.625,0.000
1,44,9,17.745,-1.445,1,15.746,0.000
1,44,10,17.745,-1.445,1,22.922,0.000
1,45,1,-5.058,2.518,1,-3.380,0.000
1,45,2,-5.058,2.518,2,5.066,0.000
1,45,3,-5.058,2.518,2,7.447,0.000
1,45,4,-5.058,2.518,2,4.827,0.000
1,45,5,-5.058,2.518,2,6.133,0.000
1,45,6,-5.058,2.518,2,-0.753,0.000
1,45,7,-5.058,2.518,2,3.548,0.000
1,45,8,-5.058,2.518,2,1.313,0.000
1,45,9,-5.058,2.518,2,4.669,0.000
1,45,10,-5.058,2.518,2,1.517,0.000
1,46,1,14.018,9.690,1,10.739,0.000
1,46,2,14.018,9.690,1,17.891,0.000
1,46,3,14.018,9.690,1,15.492,0.000
1,46,4,14.018,9.690,1,13.618,0.000
1,46,5,14.018,9.690,1,10.949,0.000
1,46,6,14.018,9.690,1,19.025,0.000
1,46,7,14.018,9.690,1,14.462,0.000
1,46,8,14.018,9.690,1,13.825,0.000
1,46,9,14.018,9.690,1,16.237,0.000
1,46,10,14.018,9.690,1,15.440,0.000
1,47,1,-4.333,6.045,1,-4.733,0.000
1,47,2,-4.333,6.045,2,7.685,0.000
1,47,3,-4.333,6.045,2,7.653,0.000
1,47,4,-4.333,6.045,2,11.418,0.000
1,47,5,-4.333,6.045,2,10.896,0.000
1,47,6,-4.333,6.045,2,2.820,0.000
1,47,7,-4.333,6.045,2,0.012,0.000
1,47,8,-4.333,6.045,2,7.584,0.000
1,47,9,-4.333,6.045,2,5.331,0.000
1,47,10,-4.333,6.045,2,1.730,0.000
1,48,1,2.494,-3.022,1,0.048,0.000
1,48,2,2.494,-3.022,2,-2.245,0.000
1,48,3,2.494,-3.022,1,5.137,0.000
1,48,4,2.494,-3.022,1,0.686,0.000
1,48,5,2.494,-3.022,1,8.603,0.000
1,48,6,2.494,-3.022,1,3.037,0.000
1,48,7,2.494,-3.022,1,8.041,0.000
1,48,8,2.494,-3.022,1,-0.746,0.000
1,48,9,2.494,-3.022,1,2.340,0.000
1,48,10,2.494,-3.022,1,3.915,0.000
1,49,1,-30.206,-0.056,1,-29.224,0.000
1,49,2,-30.206,-0.056,2,-4.156,0.000
1,49,3,-30.206,-0.056,2,4.047,0.000
1,49,4,-30.206,-0.056,2,-3.186,0.000
1,49,5,-30.206,-0.056,2,0.297,0.000
1,49,6,-30.206,-0.056,2,-2.924,0.000
1,49,7,-30.206,-0.056,2,2.461,0.000
1,49,8,-30.206,-0.056,2,5.510,0.000
1,49,9,-30.206,-0.056,2,-2.745,0.000
1,49,10,-30.206,-0.056,2,3.309,0.000
1,50,1,0.956,1.470,1,0.500,0.000
1,50,2,0.956,1.470,2,3.777,0.000
1,50,3,0.956,1.470,2,7.113,0.000
1,50,4,0.956,1.470,2,-0.910,0.000
1,50,5,0.956,1.470,2,-1.461,0.000
1,50,6,0.956,1.470,2,0.845,0.000
1,50,7,0.956,1.470,2,2.876,0.000
1,50,8,0.956,1.470,2,3.866,0.000
1,50,9,0.956,1.470,2,-2.258,0.000
1,50,10,0.956,1.470,2,5.480,0.000
1,51,1,-11.887,-9.143,1,-12.055,0.000
1,51,2,-11.887,-9.143,2,-7.079,0.000
1,51,3,-11.887,-9.143,2,-14.791,0.000
1,51,4,-11.887,-9.143,1,-10.843,0.000
1,51,5,-11.887,-9.143,1,-13.638,0.000
1,51,6,-11.887,-9.143,1,-12.045,0.000
1,51,7,-11.887,-9.143,1,-12.775,0.000
1,51,8,-11.887,-9.143,1,-19.337,0.000
1,51,9,-11.887,-9.143,1,-14.057,0.000
1,51,10,-11.887,-9.143,1,-13.103,0.000
1,52,1,3.922,10.733,1,-3.451,0.000
1,52,2,3.922,10.733,2,16.453,0.000
1,52,3,3.922,10.733,2,12.541,0.000
1,52,4,3.922,10.733,2,9.218,0.000
1,52,5,3.922,10.733,2,11.580,0.000
1,52,6,3.922,10.733,2,11.037,0.000
1,52,7,3.922,10.733,2,8.762,0.000
1,52,8,3.922,10.733,2,16.696,0.000
1,52,9,3.922,10.733,2,8.846,0.000
1,52,10,3.922,10.733,2,5.661,0.000
1,53,1,-8.322,11.118,1,-10.173,0.000
1,53,2,-8.322,11.118,2,13.482,0.000
1,53,3,-8.322,11.118,2,11.108,0.000
1,53,4,-8.322,11.118,2,13.139,0.000
1,53,5,-8.322,11.118,2,11.703,0.000
1,53,6,-8.322,11.118,2,9.781,0.000
1,53,7,-8.322,11.118,2,14.924,0.000
1,53,8,-8.322,11.118,2,9.651,0.000
1,53,9,-8.322,11.118,2,10.143,0.000
1,53,10,-8.322,11.118,2,13.810,0.000
1,54,1,-0.416,-9.457,1,0.816,0.000
1,54,2,-0.416,-9.457,2,-10.063,0.000
1,54,3,-0.416,-9.457,1,0.349,0.000
1,54,4,-0.416,-9.457,1,0.762,0.000
1,54,5,-0.416,-9.457,1,4.868,0.000
1,54,6,-0.416,-9.457,1,-0.719,0.000
1,54,7,-0.416,-9.457,1,-4.167,0.000
1,54,8,-0.416,-9.457,1,-1.982,0.000
1,54,9,-0.416,-9.457,1,-1.942,0.000
1,54,10,-0.416,-9.457,1,1.994,0.000
1,55,1,4.885,-4.058,1,7.282,0.000
1,55,2,4.885,-4.058,2,-7.106,0.000
1,55,3,4.885,-4.058,1,6.572,0.000
1,55,4,4.885,-4.058,1,-0.929,0.000
1,55,5,4.885,-4.058,1,7.103,0.000
1,55,6,4.885,-4.058,1,14.511,0.000
1,55,7,4.885,-4.058,1,2.604,0.000
1,55,8,4.885,-4.058,1,3.066,0.000
1,55,9,4.885,-4.058,1,0.120,0.000
1,55,10,4.885,-4.058,1,8.951,0.000
1,56,1,-1.414,-13.059,1,-0.056,0.000
1,56,2,-1.414,-13.059,2,-16.942,0.000
1,56,3,-1.414,-13.059,1,-1.711,0.000
1,56,4,-1.414,-13.059,1,1.179,0.000
1,56,5,-1.414,-13.059,1,-1.232,0.000
1,56,6,-1.414,-13.059,1,0.911,0.000
1,56,7,-1.414,-13.059,1,-5.723,0.000
1,56,8,-1.414,-13.059,1,2.172,0.000
1,56,9,-1.414,-13.059,1,-3.298,0.000
1,56,10,-1.414,-13.059,1,0.583,0.000
1,57,1,-1.181,-6.146,1,-0.839,0.000
1,57,2,-1.181,-6.146,2,-6.838,0.000
1,57,3,-1.181,-6.146,1,-4.505,0.000
1,57,4,-1.181,-6.146,1,-0.812,0.000
1,57,5,-1.181,-6.146,1,-3.149,0.000
1,57,6,-1.181,-6.146,1,1.761,0.000
1,57,7,-1.181,-6.146,1,3.621,0.000
1,57,8,-1.181,-6.146,1,-0.209,0.000
1,57,9,-1.181,-6.146,1,-6.569,0.000
1,57,10,-1.181,-6.146,1,0.294,0.000
1,58,1,-8.890,-22.017,1,-12.502,0.000
1,58,2,-8.890,-22.017,2,-26.614,0.000
1,58,3,-8.890,-22.017,1,-9.871,0.000
1,58,4,-8.890,-22.017,1,-10.557,0.000
1,58,5,-8.890,-22.017,1,-6.442,0.000
1,58,6,-8.890,-22.017,1,-5.540,0.000
1,58,7,-8.890,-22.017,1,-8.778,0.000
1,58,8,-8.890,-22.017,1,-6.223,0.000
1,58,9,-8.890,-22.017,1,-6.811,0.000
1,58,10,-8.890,-22.017,1,-12.362,0.000
1,59,1,11.882,-0.676,1,12.167,0.000
1,59,2,11.882,-0.676,1,13.911,0.000
1,59,3,11.882,-0.676,1,16.713,0.000
1,59,4,11.882,-0.676,1,10.373,0.000
1,59,5,11.882,-0.676,1,12.711,0.000
1,59,6,11.882,-0.676,1,13.642,0.000
1,59,7,11.882,-0.676,1,14.317,0.000
1,59,8,11.882,-0.676,1,16.122,0.000
1,59,9,11.882,-0.676,1,14.425,0.000
1,59,10,11.882,-0.676,1,9.355,0.000
1,60,1,-5.746,-19.058,1,-8.624,0.000
1,60,2,-5.746,-19.058,2,-19.580,0.000
1,60,3,-5.746,-19.058,1,-2.565,0.000
1,60,4,-5.746,-19.058,1,-3.480,0.000
1,60,5,-5.746,-19.058,1,-5.734,0.000
1,60,6,-5.746,-19.058,1,-11.563,0.000
1,60,7,-5.746,-19.058,1,-7.050,0.000
1,60,8,-5.746,-19.058,1,-5.618,0.000
1,60,9,-5.746,-19.058,1,-4.298,0.000
1,60,10,-5.746,-19.058,1,-7.640,0.000
1,61,1,-1.731,2.119,1,0.815,0.000
1,61,2,-1.731,2.119,2,-0.344,0.000
1,61,3,-1.731,2.119,1,-4.094,0.000
1,61,4,-1.731,2.119,2,-1.736,0.000
1,61,5,-1.731,2.119,2,-1.581,0.000
1,61,6,-1.731,2.119,2,8.071,0.000
1,61,7,-1.731,2.119,2,-0.544,0.000
1,61,8,-1.731,2.119,2,3.354,0.000
1,61,9,-1.731,2.119,2,5.155,0.000
1,61,10,-1.731,2.119,2,2.175,0.000
1,62,1,-16.551,-15.159,1,-18.434,0.000
1,62,2,-16.551,-15.159,2,-13.230,0.000
1,62,3,-16.551,-15.159,2,-16.425,0.000
1,62,4,-16.551,-15.159,1,-15.682,0.000
1,62,5,-16.551,-15.159,2,-21.419,0.000
1,62,6,-16.551,-15.159,1,-14.992,0.000
1,62,7,-16.551,-15.159,1,-17.591,0.000
1,62,8,-16.551,-15.159,1,-16.958,0.000
1,62,9,-16.551,-15.159,1,-15.899,0.000
1,62,10,-16.551,-15.159,1,-19.650,0.000
1,63,1,-12.782,-11.147,1,-12.953,0.000
1,63,2,-12.782,-11.147,2,-13.272,0.000
1,63,3,-12.782,-11.147,1,-12.727,0.000
1,63,4,-12.782,-11.147,2,-13.177,0.000
1,63,5,-12.782,-11.147,2,-15.138,0.000
1,63,6,-12.782,-11.147,2,-10.160,0.000
1,63,7,-12.782,-11.147,2,-9.489,0.000
1,63,8,-12.782,-11.147,2,-17.220,0.000
1,63,9,-12.782,-11.147,2,-12.617,0.000
1,63,10,-12.782,-11.147,2,-11.753,0.000
1,64,1,-3.969,3.386,1,1.196,0.000
1,64,2,-3.969,3.386,2,0.740,0.000
1,64,3,-3.969,3.386,1,0.866,0.000
1,64,4,-3.969,3.386,1,0.682,0.000
1,64,5,-3.969,3.386,1,-0.850,0.000
1,64,6,-3.969,3.386,1,-3.703,0.000
1,64,7,-3.969,3.386,1,-1.021,0.000
1,64,8,-3.969,3.386,1,-2.566,0.000
1,64,9,-3.969,3.386,1,-9.862,0.000
1,64,10,-3.969,3.386,1,-6.782,0.000
1,65,1,9.973,-7.297,1,8.960,0.000
1,65,2,9.973,-7.297,1,7.966,0.000
1,65,3,9.973,-7.297,1,13.576,0.000
1,65,4,9.973,-7.297,1,2.402,0.000
1,65,5,9.973,-7.297,1,10.744,0.000
1,65,6,9.973,-7.297,1,9.606,0.000
1,65,7,9.973,-7.297,1,10.252,0.000
1,65,8,9.973,-7.297,1,10.385,0.000
1,65,9,9.973,-7.297,1,5.780,0.000
1,65,10,9.973,-7.297,1,11.417,0.000
1,66,1,12.871,-11.514,1,12.692,0.000
1,66,2,12.871,-11.514,1,9.647,0.000
1,66,3,12.871,-11.514,1,12.823,0.000
1,66,4,12.871,-11.514,1,15.129,0.000
1,66,5,12.871,-11.514,1,16.572,0.000
1,66,6,12.871,-11.514,1,9.292,0.000
1,66,7,12.871,-11.514,1,13.235,0.000
1,66,8,12.871,-11.514,1,11.179,0.000
1,66,9,12.871,-11.514,1,13.712,0.000
1,66,10,12.871,-11.514,1,12.556,0.000
1,67,1,3.725,12.183,1,1.759,0.000
1,67,2,3.725,12.183,2,9.198,0.000
1,67,3,3.725,12.183,2,10.720,0.000
1,67,4,3.725,12.183,2,10.008,0.000
1,67,5,3.725,12.183,2,13.172,0.000
1,67,6,3.725,12.183,2,12.512,0.000
1,67,7,3.725,12.183,2,11.487,0.000
1,67,8,3.725,12.183,2,14.257,0.000
1,67,9,3.725,12.183,2,6.933,0.000
1,67,10,3.725,12.183,2,9.117,0.000
1,68,1,5.805,-5.310,1,5.836,0.000
1,68,2,5.805,-5.310,2,-9.785,0.000
1,68,3,5.805,-5.310,1,5.091,0.000
1,68,4,5.805,-5.310,1,4.927,0.000
1,68,5,5.805,-5.310,1,-0.035,0.000
1,68,6,5.805,-5.310,1,5.232,0.000
1,68,7,5.805,-5.310,1,5.767,0.000
1,68,8,5.805,-5.310,1,5.811,0.000
1,68,9,5.805,-5.310,1,3.968,0.000
1,68,10,5.805,-5.310,1,11.714,0.000
1,69,1,-4.088,-6.208,1,2.243,0.000
1,69,2,-4.088,-6.208,2,-12.557,0.000
1,69,3,-4.088,-6.208,1,-1.671,0.000
1,69,4,-4.088,-6.208,1,-4.848,0.000
1,69,5,-4.088,-6.208,1,-3.698,0.000
1,69,6,-4.088,-6.208,1,-7.665,0.000
1,69,7,-4.088,-6.208,1,-3.324,0.000
1,69,8,-4.088,-6.208,1,-1.440,0.000
1,69,9,-4.088,-6.208,1,-5.390,0.000
1,69,10,-4.088,-6.208,1,-3.256,0.000
1,70,1,1.030,0.022,1,5.706,0.000
1,70,2,1.030,0.022,2,2.816,0.000
1,70,3,1.030,0.022,1,-0.419,0.000
1,70,4,1.030,0.022,1,4.358,0.000
1,70,5,1.030,0.022,1,-1.265,0.000
1,70,6,1.030,0.022,1,-0.005,0.000
1,70,7,1.030,0.022,1,-1.574,0.000
1,70,8,1.030,0.022,1,2.443,0.000
1,70,9,1.030,0.022,1,4.178,0.000
1,70,10,1.030,0.022,1,-0.816,0.000
1,71,1,14.522,7.523,1,15.375,0.000
1,71,2,14.522,7.523,1,15.399,0.000
1,71,3,14.522,7.523,1,18.484,0.000
1,71,4,14.522,7.523,1,23.949,0.000
1,71,5,14.522,7.523,1,23.010,0.000
1,71,6,14.522,7.523,1,11.671,0.000
1,71,7,14.522,7.523,1,9.898,0.000
1,71,8,14.522,7.523,1,15.303,0.000
1,71,9,14.522,7.523,1,13.870,0.000
1,71,10,14.522,7.523,1,11.870,0.000
1,72,1,-17.788,-2.638,1,-15.461,0.000
1,72,2,-17.788,-2.638,2,-0.189,0.000
1,72,3,-17.788,-2.638,2,-3.867,0.000
1,72,4,-17.788,-2.638,2,-4.757,0.000
1,72,5,-17.788,-2.638,2,-4.128,0.000
1,72,6,-17.788,-2.638,2,-0.735,0.000
1,72,7,-17.788,-2.638,2,-4.869,0.000
1,72,8,-17.788,-2.638,2,-0.656,0.000
1,72,9,-17.788,-2.638,2,-0.919,0.000
1,72,10,-17.788,-2.638,2,-0.248,0.000
1,73,1,-3.464,1.166,1,-9.115,0.000
1,73,2,-3.464,1.166,2,-1.172,0.000
1,73,3,-3.464,1.166,2,-5.240,0.000
1,73,4,-3.464,1.166,2,0.717,0.000
1,73,5,-3.464,1.166,2,2.027,0.000
1,73,6,-3.464,1.166,2,2.778,0.000
1,73,7,-3.464,1.166,2,-0.933,0.000
1,73,8,-3.464,1.166,2,0.063,0.000
1,73,9,-3.464,1.166,2,2.044,0.000
1,73,10,-3.464,1.166,2,-1.781,0.000
1,74,1,3.003,-25.259,1,2.372,0.000
1,74,2,3.003,-25.259,2,-26.817,0.000
1,74,3,3.003,-25.259,1,2.274,0.000
1,74,4,3.003,-25.259,1,2.893,0.000
1,74,5,3.003,-25.259,1,2.720,0.000
1,74,6,3.003,-25.259,1,2.771,0.000
1,74,7,3.003,-25.259,1,2.610,0.000
1,74,8,3.003,-25.259,1,-1.553,0.000
1,74,9,3.003,-25.259,1,-2.815,0.000
1,74,10,3.003,-25.259,1,2.859,0.000
1,75,1,4.880,-16.346,1,3.574,0.000
1,75,2,4.880,-16.346,2,-21.928,0.000
1,75,3,4.880,-16.346,1,1.342,0.000
1,75,4,4.880,-16.346,1,1.222,0.000
1,75,5,4.880,-16.346,1,8.540,0.000
1,75,6,4.880,-16.346,1,7.850,0.000
1,75,7,4.880,-16.346,1,2.989,0.000
1,75,8,4.880,-16.346,1,1.152,0.000
1,75,9,4.880,-16.346,1,4.974,0.000
1,75,10,4.880,-16.346,1,8.103,0.000
1,76,1,17.628,-2.689,1,14.319,0.000
1,76,2,17.628,-2.689,1,13.883,0.000
1,76,3,17.628,-2.689,1,16.539,0.000
1,76,4,17.628,-2.689,1,16.072,0.000
1,76,5,17.628,-2.689,1,18.652,0.000
1,76,6,17.628,-2.689,1,16.995,0.000
1,76,7,17.628,-2.689,1,18.018,0.000
1,76,8,17.628,-2.689,1,17.626,0.000
1,76,9,17.628,-2.689,1,14.259,0.000
1,76,10,17.628,-2.689,1,15.452,0.000
1,77,1,10.843,-0.419,1,9.086,0.000
1,77,2,10.843,-0.419,1,9.742,0.000
1,77,3,10.843,-0.419,1,14.702,0.000
1,77,4,10.843,-0.419,1,9.966,0.000
1,77,5,10.843,-0.419,1,9.701,0.000
1,77,6,10.843,-0.419,1,15.925,0.000
1,77,7,10.843,-0.419,1,13.205,0.000
1,77,8,10.843,-0.419,1,12.273,0.000
1,77,9,10.843,-0.419,1,5.685,0.000
1,77,10,10.843,-0.419,1,8.904,0.000
1,78,1,-22.034,17.409,1,-23.410,0.000
1,78,2,-22.034,17.409,2,14.125,0.000
1,78,3,-22.034,17.409,2,20.673,0.000
1,78,4,-22.034,17.409,2,14.857,0.000
1,78,5,-22.034,17.409,2,22.636,0.000
1,78,6,-22.034,17.409,2,22.608,0.000
1,78,7,-22.034,17.409,2,20.239,0.000
1,78,8,-22.034,17.409,2,19.366,0.000
1,78,9,-22.034,17.409,2,15.861,0.000
1,78,10,-22.034,17.409,2,14.207,0.000
1,79,1,6.443,-5.252,1,8.361,0.000
1,79,2,6.443,-5.252,1,12.083,0.000
1,79,3,6.443,-5.252,1,12.067,0.000
1,79,4,6.443,-5.252,1,8.143,0.000
1,79,5,6.443,-5.252,1,6.462,0.000
1,79,6,6.443,-5.252,1,10.089,0.000
1,79,7,6.443,-5.252,1,3.105,0.000
1,79,8,6.443,-5.252,1,5.300,0.000
1,79,9,6.443,-5.252,1,13.439,0.000
1,79,10,6.443,-5.252,1,2.681,0.000
1,80,1,-6.042,4.331,1,-7.455,0.000
1,80,2,-6.042,4.331,2,0.249,0.000
1,80,3,-6.042,4.331,2,1.546,0.000
1,80,4,-6.042,4.331,2,14.172,0.000
1,80,5,-6.042,4.331,2,3.582,0.000
1,80,6,-6.042,4.331,2,3.787,0.000
1,80,7,-6.042,4.331,2,3.688,0.000
1,80,8,-6.042,4.331,2,2.215,0.000
1,80,9,-6.042,4.331,2,5.597,0.000
1,80,10,-6.042,4.331,2,5.063,0.000
1,81,1,-19.917,-1.498,1,-15.058,0.000
1,81,2,-19.917,-1.498,2,-2.820,0.000
1,81,3,-19.917,-1.498,2,-0.995,0.000
1,81,4,-19.917,-1.498,2,-2.248,0.000
1,81,5,-19.917,-1.498,2,-2.222,0.000
1,81,6,-19.917,-1.498,2,-4.528,0.000
1,81,7,-19.917,-1.498,2,-5.664,0.000
1,81,8,-19.917,-1.498,2,-4.157,0.000
1,81,9,-19.917,-1.498,2,1.113,0.000
1,81,10,-19.917,-1.498,2,0.625,0.000
1,82,1,3.470,10.336,1,3.156,0.000
1,82,2,3.470,10.336,2,11.961,0.000
1,82,3,3.470,10.336,2,6.762,0.000
1,82,4,3.470,10.336,2,12.663,0.000
1,82,5,3.470,10.336,2,14.239,0.000
1,82,6,3.470,10.336,2,6.265,0.000
1,82,7,3.470,10.336,2,6.069,0.000
1,82,8,3.470,10.336,2,4.505,0.000
1,82,9,3.470,10.336,2,12.473,0.000
1,82,10,3.470,10.336,2,10.922,0.000
1,83,1,13.729,3.408,1,15.134,0.000
1,83,2,13.729,3.408,1,14.874,0.000
1,83,3,13.729,3.408,1,12.064,0.000
1,83,4,13.729,3.408,1,7.970,0.000
1,83,5,13.729,3.408,1,14.311,0.000
1,83,6,13.729,3.408,1,11.826,0.000
1,83,7,13.729,3.408,1,10.904,0.000
1,83,8,13.729,3.408,1,16.018,0.000
1,83,9,13.729,3.408,1,11.140,0.000
1,83,10,13.729,3.408,1,17.413,0.000
1,84,1,8.006,8.393,1,6.934,0.000
1,84,2,8.006,8.393,1,10.272,0.000
1,84,3,8.006,8.393,1,7.536,0.000
1,84,4,8.006,8.393,1,6.687,0.000
1,84,5,8.006,8.393,1,4.876,0.000
1,84,6,8.006,8.393,1,12.443,0.000
1,84,7,8.006,8.393,1,9.401,0.000
1,84,8,8.006,8.393,1,12.851,0.000
1,84,9,8.006,8.393,1,11.512,0.000
1,84,10,8.006,8.393,1,9.953,0.000
1,85,1,12.019,6.171,1,6.279,0.000
1,85,2,12.019,6.171,2,0.315,0.000
1,85,3,12.019,6.171,1,6.718,0.000
1,85,4,12.019,6.171,1,10.785,0.000
1,85,5,12.019,6.171,1,13.900,0.000
1,85,6,12.019,6.171,1,9.413,0.000
1,85,7,12.019,6.171,1,16.455,0.000
1,85,8,12.019,6.171,1,11.217,0.000
1,85,9,12.019,6.171,1,9.566,0.000
1,85,10,12.019,6.171,1,16.076,0.000
1,86,1,23.941,17.043,1,18.292,0.000
1,86,2,23.941,17.043,1,26.353,0.000
1,86,3,23.941,17.043,1,26.542,0.000
1,86,4,23.941,17.043,1,26.223,0.000
1,86,5,23.941,17.043,1,19.927,0.000
1,86,6,23.941,17.043,1,26.046,0.000
1,86,7,23.941,17.043,1,25.837,0.000
1,86,8,23.941,17.043,1,24.385,0.000
1,86,9,23.941,17.043,1,26.734,0.000
1,86,10,23.941,17.043,1,25.530,0.000
1,87,1,4.358,9.412,1,0.147,0.000
1,87,2,4.358,9.412,2,8.704,0.000
1,87,3,4.358,9.412,2,5.964,0.000
1,87,4,4.358,9.412,2,10.561,0.000
1,87,5,4.358,9.412,2,13.279,0.000
1,87,6,4.358,9.412,2,7.835,0.000
1,87,7,4.358,9.412,2,8.252,0.000
1,87,8,4.358,9.412,2,11.087,0.000
1,87,9,4.358,9.412,2,12.125,0.000
1,87,10,4.358,9.412,2,10.666,0.000
1,88,1,4.308,11.163,1,6.911,0.000
1,88,2,4.308,11.163,2,8.659,0.000
1,88,3,4.308,11.163,2,15.589,0.000
1,88,4,4.308,11.163,2,14.271,0.000
1,88,5,4.308,11.163,2,16.056,0.000
1,88,6,4.308,11.163,2,6.549,0.000
1,88,7,4.308,11.163,2,14.305,0.000
1,88,8,4.308,11.163,2,12.688,0.000
1,88,9,4.308,11.163,2,13.564,0.000
1,88,10,4.308,11.163,2,7.254,0.000
1,89,1,21.674,6.926,1,23.367,0.000
1,89,2,21.674,6.926,1,22.309,0.000
1,89,3,21.674,6.926,1,20.846,0.000
1,89,4,21.674,6.926,1,25.722,0.000
1,89,5,21.674,6.926,1,22.370,0.000
1,89,6,21.674,6.926,1,25.032,0.000
1,89,7,21.674,6.926,1,25.079,0.000
1,89,8,21.674,6.926,1,15.776,0.000
1,89,9,21.674,6.926,1,19.674,0.000
1,89,10,21.674,6.926,1,20.286,0.000
1,90,1,14.388,4.035,1,8.295,0.000
1,90,2,14.388,4.035,1,12.727,0.000
1,90,3,14.388,4.035,1,12.235,0.000
1,90,4,14.388,4.035,1,10.913,0.000
1,90,5,14.388,4.035,1,15.638,0.000
1,90,6,14.388,4.035,1,15.206,0.000
1,90,7,14.388,4.035,1,21.982,0.000
1,90,8,14.388,4.035,1,18.374,0.000
1,90,9,14.388,4.035,1,10.079,0.000
1,90,10,14.388,4.035,1,11.881,0.000
1,91,1,-10.627,-5.940,1,-8.963,0.000
1,91,2,-10.627,-5.940,2,-6.323,0.000
1,91,3,-10.627,-5.940,2,-6.512,0.000
1,91,4,-10.627,-5.940,2,-5.179,0.000
1,91,5,-10.627,-5.940,2,-3.273,0.000
1,91,6,-10.627,-5.940,2,-6.950,0.000
1,91,7,-10.627,-5.940,2,-8.019,0.000
1,91,8,-10.627,-5.940,2,-5.989,0.000
1,91,9,-10.627,-5.940,2,-8.542,0.000
1,91,10,-10.627,-5.940,2,-2.287,0.000
1,92,1,-17.998,8.533,1,-14.399,0.000
1,92,2,-17.998,8.533,2,16.850,0.000
1,92,3,-17.998,8.533,2,8.485,0.000
1,92,4,-17.998,8.533,2,7.440,0.000
1,92,5,-17.998,8.533,2,10.321,0.000
1,92,6,-17.998,8.533,2,10.334,0.000
1,92,7,-17.998,8.533,2,5.447,0.000
1,92,8,-17.998,8.533,2,10.293,0.000
1,92,9,-17.998,8.533,2,11.775,0.000
1,92,10,-17.998,8.533,2,4.544,0.000
1,93,1,-5.693,16.446,1,-7.239,0.000
1,93,2,-5.693,16.446,2,12.324,0.000
1,93,3,-5.693,16.446,2,17.658,0.000
1,93,4,-5.693,16.446,2,14.541,0.000
1,93,5,-5.693,16.446,2,12.345,0.000
1,93,6,-5.693,16.446,2,17.432,0.000
1,93,7,-5.693,16.446,2,18.831,0.000
1,93,8,-5.693,16.446,2,20.926,0.000
1,93,9,-5.693,16.446,2,16.945,0.000
1,93,10,-5.693,16.446,2,17.273,0.000
1,94,1,12.799,-12.988,1,6.305,0.000
1,94,2,12.799,-12.988,2,-12.213,0.000
1,94,3,12.799,-12.988,1,9.307,0.000
1,94,4,12.799,-12.988,1,13.240,0.000
1,94,5,12.799,-12.988,1,10.189,0.000
1,94,6,12.799,-12.988,1,12.174,0.000
1,94,7,12.799,-12.988,1,11.181,0.000
1,94,8,12.799,-12.988,1,11.925,0.000
1,94,9,12.799,-12.988,1,9.806,0.000
1,94,10,12.799,-12.988,1,9.816,0.000
1,95,1,3.325,3.554,1,4.621,0.000
1,95,2,3.325,3.554,2,1.547,0.000
1,95,3,3.325,3.554,1,3.609,0.000
1,95,4,3.325,3.554,1,3.939,0.000
1,95,5,3.325,3.554,1,7.240,0.000
1,95,6,3.325,3.554,1,6.161,0.000
1,95,7,3.325,3.554,1,6.470,0.000
1,95,8,3.325,3.554,1,5.059,0.000
1,95,9,3.325,3.554,1,6.606,0.000
1,95,10,3.325,3.554,1,7.579,0.000
1,96,1,5.001,1.393,1,1.061,0.000
1,96,2,5.001,1.393,2,4.126,0.000
1,96,3,5.001,1.393,2,0.090,0.000
1,96,4,5.001,1.393,2,1.415,0.000
1,96,5,5.001,1.393,2,2.359,0.000
1,96,6,5.001,1.393,2,4.849,0.000
1,96,7,5.001,1.393,2,-1.724,0.000
1,96,8,5.001,1.393,2,4.277,0.000
1,96,9,5.001,1.393,2,-3.931,0.000
1,96,10,5.001,1.393,2,-1.438,0.000
1,97,1,31.217,-2.659,1,32.812,0.000
1,97,2,31.217,-2.659,2,0.309,0.000
1,97,3,31.217,-2.659,1,30.003,0.000
1,97,4,31.217,-2.659,1,32.834,0.000
1,97,5,31.217,-2.659,1,29.988,0.000
1,97,6,31.217,-2.659,1,30.948,0.000
1,97,7,31.217,-2.659,1,33.495,0.000
1,97,8,31.217,-2.659,1,34.050,0.000
1,97,9,31.217,-2.659,1,30.280,0.000
1,97,10,31.217,-2.659,1,32.399,0.000
1,98,1,4.782,-27.625,1,1.459,0.000
1,98,2,4.782,-27.625,2,-21.691,0.000
1,98,3,4.782,-27.625,1,2.534,0.000
1,98,4,4.782,-27.625,1,3.169,0.000
1,98,5,4.782,-27.625,1,5.769,0.000
1,98,6,4.782,-27.625,1,7.500,0.000
1,98,7,4.782,-27.625,1,2.509,0.000
1,98,8,4.782,-27.625,1,2.147,0.000
1,98,9,4.782,-27.625,1,2.960,0.000
1,98,10,4.782,-27.625,1,5.399,0.000
1,99,1,16.891,0.788,1,13.732,0.000
1,99,2,16.891,0.788,1,18.603,0.000
1,99,3,16.891,0.788,1,19.236,0.000
1,99,4,16.891,0.788,1,18.167,0.000
1,99,5,16.891,0.788,1,21.737,0.000
1,99,6,16.891,0.788,1,16.375,0.000
1,99,7,16.891,0.788,1,14.608,0.000
1,99,8,16.891,0.788,1,9.526,0.000
1,99,9,16.891,0.788,1,18.571,0.000
1,99,10,16.891,0.788,1,13.864,0.000
1,100,1,9.469,3.869,1,14.810,0.000
1,100,2,9.469,3.869,1,10.058,0.000
1,100,3,9.469,3.869,1,15.655,0.000
1,100,4,9.469,3.869,1,6.120,0.000
1,100,5,9.469,3.869,1,8.426,0.000
1,100,6,9.469,3.869,1,7.289,0.000
1,100,7,9.469,3.869,1,13.105,0.000
1,100,8,9.469,3.869,1,11.015,0.000
1,100,9,9.469,3.869,1,11.133,0.000
1,100,10,9.469,3.869,1,12.406,0.000
1,101,1,12.509,10.858,1,12.717,0.000
1,101,2,12.509,10.858,1,16.186,0.000
1,101,3,12.509,10.858,1,17.473,0.000
1,101,4,12.509,10.858,1,13.208,0.000
1,101,5,12.509,10.858,1,14.428,0.000
1,101,6,12.509,10.858,1,14.519,0.000
1,101,7,12.509,10.858,1,13.673,0.000
1,101,8,12.509,10.858,1,13.392,0.000
1,101,9,12.509,10.858,1,15.500,0.000
1,101,10,12.509,10.858,1,11.229,0.000
1,102,1,12.838,0.493,1,13.239,0.000
1,102,2,12.838,0.493,1,17.392,0.000
1,102,3,12.838,0.493,1,12.031,0.000
1,102,4,12.838,0.493,1,11.648,0.000
1,102,5,12.838,0.493,1,12.736,0.000
1,102,6,12.838,0.493,1,15.805,0.000
1,102,7,12.838,0.493,1,18.188,0.000
1,102,8,12.838,0.493,1,10.917,0.000
1,102,9,12.838,0.493,1,13.210,0.000
1,102,10,12.838,0.493,1,14.632,0.000
1,103,1,-11.004,-6.190,1,-10.744,0.000
1,103,2,-11.004,-6.190,2,-7.122,0.000
1,103,3,-11.004,-6.190,2,-2.687,0.000
1,103,4,-11.004,-6.190,2,-7.734,0.000
1,103,5,-11.004,-6.190,2,-7.069,0.000
1,103,6,-11.004,-6.190,2,-1.612,0.000
1,103,7,-11.004,-6.190,2,-9.122,0.000
1,103,8,-11.004,-6.190,2,-5.616,0.000
1,103,9,-11.004,-6.190,2,-8.419,0.000
1,103,10,-11.004,-6.190,2,-1.520,0.000
1,104,1,17.604,6.968,1,16.450,0.000
1,104,2,17.604,6.968,1,16.954,0.000
1,104,3,17.604,6.968,1,18.548,0.000
1,104,4,17.604,6.968,1,16.306,0.000
1,104,5,17.604,6.968,1,17.180,0.000
1,104,6,17.604,6.968,1,15.935,0.000
1,104,7,17.604,6.968,1,16.220,0.000
1,104,8,17.604,6.968,1,16.371,0.000
1,104,9,17.604,6.968,1,11.831,0.000
1,104,10,17.604,6.968,1,17.807,0.000
1,105,1,14.456,-0.099,1,11.627,0.000
1,105,2,14.456,-0.099,1,17.768,0.000
1,105,3,14.456,-0.099,1,14.263,0.000
1,105,4,14.456,-0.099,1,14.961,0.000
1,105,5,14.456,-0.099,1,14.850,0.000
1,105,6,14.456,-0.099,1,16.482,0.000
1,105,7,14.456,-0.099,1,17.880,0.000
1,105,8,14.456,-0.099,1,13.708,0.000
1,105,9,14.456,-0.099,1,18.038,0.000
1,105,10,14.456,-0.099,1,14.840,0.000
1,106,1,-6.681,-10.149,1,-8.158,0.000
1,106,2,-6.681,-10.149,2,-5.285,0.000
1,106,3,-6.681,-10.149,2,-13.624,0.000
1,106,4,-6.681,-10.149,1,-9.488,0.000
1,106,5,-6.681,-10.149,1,0.575,0.000
1,106,6,-6.681,-10.149,1,-7.252,0.000
1,106,7,-6.681,-10.149,1,-11.862,0.000
1,106,8,-6.681,-10.149,1,-8.503,0.000
1,106,9,-6.681,-10.149,1,-10.324,0.000
1,106,10,-6.681,-10.149,1,-8.526,0.000
1,107,1,-2.695,8.159,1,-0.410,0.000
1,107,2,-2.695,8.159,2,12.301,0.000
1,107,3,-2.695,8.159,2,3.793,0.000
1,107,4,-2.695,8.159,2,10.518,0.000
1,107,5,-2.695,8.159,2,10.807,0.000
1,107,6,-2.695,8.159,2,12.070,0.000
1,107,7,-2.695,8.159,2,5.828,0.000
1,107,8,-2.695,8.159,2,8.820,0.000
1,107,9,-2.695,8.159,2,5.152,0.000
1,107,10,-2.695,8.159,2,5.612,0.000
1,108,1,-4.033,1.807,1,-2.090,0.000
1,108,2,-4.033,1.807,2,-1.307,0.000
1,108,3,-4.033,1.807,2,4.224,0.000
1,108,4,-4.033,1.807,2,-6.411,0.000
1,108,5,-4.033,1.807,2,3.265,0.000
1,108,6,-4.033,1.807,2,-0.017,0.000
1,108,7,-4.033,1.807,2,-0.403,0.000
1,108,8,-4.033,1.807,2,3.324,0.000
1,108,9,-4.033,1.807,2,2.039,0.000
1,108,10,-4.033,1.807,2,-3.148,0.000
1,109,1,-11.305,14.623,1,-12.625,0.000
1,109,2,-11.305,14.623,2,16.594,0.000
1,109,3,-11.305,14.623,2,11.641,0.000
1,109,4,-11.305,14.623,2,13.309,0.000
1,109,5,-11.305,14.623,2,11.610,0.000
1,109,6,-11.305,14.623,2,11.116,0.000
1,109,7,-11.305,14.623,2,10.652,0.000
1,109,8,-11.305,14.623,2,18.712,0.000
1,109,9,-11.305,14.623,2,14.232,0.000
1,109,10,-11.305,14.623,2,22.019,0.000
1,110,1,-6.224,12.330,1,-1.266,0.000
1,110,2,-6.224,12.330,2,10.977,0.000
1,110,3,-6.224,12.330,2,10.550,0.000
1,110,4,-6.224,12.330,2,14.706,0.000
1,110,5,-6.224,12.330,2,12.427,0.000
1,110,6,-6.224,12.330,2,14.692,0.000
1,110,7,-6.224,12.330,2,12.958,0.000
1,110,8,-6.224,12.330,2,14.838,0.000
1,110,9,-6.224,12.330,2,11.602,0.000
1,110,10,-6.224,12.330,2,16.478,0.000
1,111,1,-1.417,21.784,1,3.851,0.000
1,111,2,-1.417,21.784,2,20.552,0.000
1,111,3,-1.417,21.784,2,16.566,0.000
1,111,4,-1.417,21.784,2,20.514,0.000
1,111,5,-1.417,21.784,2,19.310,0.000
1,111,6,-1.417,21.784,2,22.096,0.000
1,111,7,-1.417,21.784,2,24.797,0.000
1,111,8,-1.417,21.784,2,24.247,0.000
1,111,9,-1.417,21.784,2,23.249,0.000
1,111,10,-1.417,21.784,2,21.451,0.000
1,112,1,1.682,-7.045,1,5.070,0.000
1,112,2,1.682,-7.045,2,-7.869,0.000
1,112,3,1.682,-7.045,1,6.222,0.000
1,112,4,1.682,-7.045,1,0.213,0.000
1,112,5,1.682,-7.045,1,-0.297,0.000
1,112,6,1.682,-7.045,1,1.456,0.000
1,112,7,1.682,-7.045,1,1.688,0.000
1,112,8,1.682,-7.045,1,3.589,0.000
1,112,9,1.682,-7.045,1,5.189,0.000
1,112,10,1.682,-7.045,1,3.031,0.000
1,113,1,-4.848,-5.979,1,-6.182,0.000
1,113,2,-4.848,-5.979,2,-2.999,0.000
1,113,3,-4.848,-5.979,2,-6.858,0.000
1,113,4,-4.848,-5.979,1,-4.768,0.000
1,113,5,-4.848,-5.979,1,0.222,0.000
1,113,6,-4.848,-5.979,1,-1.898,0.000
1,113,7,-4.848,-5.979,1,-5.472,0.000
1,113,8,-4.848,-5.979,1,-5.597,0.000
1,113,9,-4.848,-5.979,1,-2.884,0.000
1,113,10,-4.848,-5.979,1,-3.387,0.000
1,114,1,10.355,-5.744,1,10.405,0.000
1,114,2,10.355,-5.744,1,13.045,0.000
1,114,3,10.355,-5.744,1,9.769,0.000
1,114,4,10.355,-5.744,1,11.723,0.000
1,114,5,10.355,-5.744,1,9.406,0.000
1,114,6,10.355,-5.744,1,10.271,0.000
1,114,7,10.355,-5.744,1,11.802,0.000
1,114,8,10.355,-5.744,1,7.449,0.000
1,114,9,10.355,-5.744,1,11.020,0.000
1,114,10,10.355,-5.744,1,6.757,0.000
1,115,1,17.852,12.022,1,13.596,0.000
1,115,2,17.852,12.022,1,17.859,0.000
1,115,3,17.852,12.022,1,15.562,0.000
1,115,4,17.852,12.022,1,14.347,0.000
1,115,5,17.852,12.022,1,21.113,0.000
1,115,6,17.852,12.022,1,20.740,0.000
1,115,7,17.852,12.022,1,20.243,0.000
1,115,8,17.852,12.022,1,10.233,0.000
1,115,9,17.852,12.022,1,16.377,0.000
1,115,10,17.852,12.022,1,17.267,0.000
1,116,1,-7.229,-15.091,1,-2.261,0.000
1,116,2,-7.229,-15.091,2,-13.120,0.000
1,116,3,-7.229,-15.091,1,-6.556,0.000
1,116,4,-7.229,-15.091,1,-8.340,0.000
1,116,5,-7.229,-15.091,1,-2.529,0.000
1,116,6,-7.229,-15.091,1,-12.583,0.000
1,116,7,-7.229,-15.091,1,-8.509,0.000
1,116,8,-7.229,-15.091,1,-6.632,0.000
1,116,9,-7.229,-15.091,1,-10.899,0.000
1,116,10,-7.229,-15.091,1,-6.797,0.000
1,117,1,7.284,2.429,1,10.235,0.000
1,117,2,7.284,2.429,1,2.396,0.000
1,117,3,7.284,2.429,2,5.526,0.000
1,117,4,7.284,2.429,2,0.460,0.000
1,117,5,7.284,2.429,1,2.278,0.000
1,117,6,7.284,2.429,1,6.829,0.000
1,117,7,7.284,2.429,1,7.447,0.000
1,117,8,7.284,2.429,1,7.579,0.000
1,117,9,7.284,2.429,1,9.757,0.000
1,117,10,7.284,2.429,1,9.701,0.000
1,118,1,20.850,-14.329,1,20.880,0.000
1,118,2,20.850,-14.329,1,23.368,0.000
1,118,3,20.850,-14.329,1,18.927,0.000
1,118,4,20.850,-14.329,1,21.490,0.000
1,118,5,20.850,-14.329,1,18.507,0.000
1,118,6,20.850,-14.329,1,19.398,0.000
1,118,7,20.850,-14.329,1,19.586,0.000
1,118,8,20.850,-14.329,1,21.906,0.000
1,118,9,20.850,-14.329,1,23.414,0.000
1,118,10,20.850,-14.329,1,22.063,0.000
1,119,1,-3.479,-17.332,1,-4.999,0.000
1,119,2,-3.479,-17.332,2,-16.026,0.000
1,119,3,-3.479,-17.332,1,-5.234,0.000
1,119,4,-3.479,-17.332,1,-3.952,0.000
1,119,5,-3.479,-17.332,1,-7.525,0.000
1,119,6,-3.479,-17.332,1,-5.252,0.000
1,119,7,-3.479,-17.332,1,-4.439,0.000
1,119,8,-3.479,-17.332,1,-1.391,0.000
1,119,9,-3.479,-17.332,1,-12.919,0.000
1,119,10,-3.479,-17.332,1,-4.953,0.000
1,120,1,2.224,-0.567,1,1.057,0.000
1,120,2,2.224,-0.567,2,-1.229,0.000
1,120,3,2.224,-0.567,1,6.192,0.000
1,120,4,2.224,-0.567,1,3.728,0.000
1,120,5,2.224,-0.567,1,5.025,0.000
1,120,6,2.224,-0.567,1,-0.235,0.000
1,120,7,2.224,-0.567,1,-4.927,0.000
1,120,8,2.224,-0.567,1,4.998,0.000
1,120,9,2.224,-0.567,1,4.146,0.000
1,120,10,2.224,-0.567,1,2.679,0.000
1,121,1,18.096,-3.335,1,18.727,0.000
1,121,2,18.096,-3.335,1,17.442,0.000
1,121,3,18.096,-3.335,1,18.349,0.000
1,121,4,18.096,-3.335,1,22.918,0.000
1,121,5,18.096,-3.335,1,15.492,0.000
1,121,6,18.096,-3.335,1,18.103,0.000
1,121,7,18.096,-3.335,1,19.498,0.000
1,121,8,18.096,-3.335,1,22.142,0.000
1,121,9,18.096,-3.335,1,13.904,0.000
1,121,10,18.096,-3.335,1,17.189,0.000
1,122,1,-3.835,-4.074,1,4.704,0.000
1,122,2,-3.835,-4.074,2,-1.497,0.000
1,122,3,-3.835,-4.074,1,-5.001,0.000
1,122,4,-3.835,-4.074,1,-3.224,0.000
1,122,5,-3.835,-4.074,1,-1.521,0.000
1,122,6,-3.835,-4.074,1,-4.817,0.000
1,122,7,-3.835,-4.074,1,-7.684,0.000
1,122,8,-3.835,-4.074,1,-6.569,0.000
1,122,9,-3.835,-4.074,1,-5.824,0.000
1,122,10,-3.835,-4.074,1,-0.047,0.000
1,123,1,1.402,0.299,1,-0.809,0.000
1,123,2,1.402,0.299,2,0.399,0.000
1,123,3,1.402,0.299,2,2.037,0.000
1,123,4,1.402,0.299,2,8.335,0.000
1,123,5,1.402,0.299,2,0.956,0.000
1,123,6,1.402,0.299,2,-3.599,0.000
1,123,7,1.402,0.299,2,-1.921,0.000
1,123,8,1.402,0.299,2,-5.074,0.000
1,123,9,1.402,0.299,2,-0.512,0.000
1,123,10,1.402,0.299,2,0.772,0.000
1,124,1,-14.986,-8.996,1,-15.971,0.000
1,124,2,-14.986,-8.996,2,-7.164,0.000
1,124,3,-14.986,-8.996,2,-9.006,0.000
1,124,4,-14.986,-8.996,2,-6.689,0.000
1,124,5,-14.986,-8.996,2,-10.850,0.000
1,124,6,-14.986,-8.996,2,-9.948,0.000
1,124,7,-14.986,-8.996,2,-9.110,0.000
1,124,8,-14.986,-8.996,2,-8.971,0.000
1,124,9,-14.986,-8.996,2,-6.054,0.000
1,124,10,-14.986,-8.996,2,-4.899,0.000
1,125,1,-13.329,2.762,1,-12.941,0.000
1,125,2,-13.329,2.762,2,2.081,0.000
1,125,3,-13.329,2.762,2,1.061,0.000
1,125,4,-13.329,2.762,2,7.216,0.000
1,125,5,-13.329,2.762,2,-0.301,0.000
1,125,6,-13.329,2.762,2,1.657,0.000
1,125,7,-13.329,2.762,2,6.146,0.000
1,125,8,-13.329,2.762,2,8.227,0.000
1,125,9,-13.329,2.762,2,0.583,0.000
1,125,10,-13.329,2.762,2,3.934,0.000
1,126,1,0.130,7.942,1,4.650,0.000
1,126,2,0.130,7.942,2,7.888,0.000
1,126,3,0.130,7.942,2,4.316,0.000
1,126,4,0.130,7.942,2,8.686,0.000
1,126,5,0.130,7.942,2,6.120,0.000
1,126,6,0.130,7.942,2,9.879,0.000
1,126,7,0.130,7.942,2,5.225,0.000
1,126,8,0.130,7.942,2,8.133,0.000
1,126,9,0.130,7.942,2,6.604,0.000
1,126,10,0.130,7.942,2,7.659,0.000
1,127,1,-0.762,-7.141,1,0.863,0.000
1,127,2,-0.762,-7.141,2,-10.060,0.000
1,127,3,-0.762,-7.141,1,-1.883,0.000
1,127,4,-0.762,-7.141,1,-1.447,0.000
1,127,5,-0.762,-7.141,1,-1.918,0.000
1,127,6,-0.762,-7.141,1,-1.094,0.000
1,127,7,-0.762,-7.141,1,-1.679,0.000
1,127,8,-0.762,-7.141,1,0.460,0.000
1,127,9,-0.762,-7.141,1,-1.524,0.000
1,127,10,-0.762,-7.141,1,-1.747,0.000
1,128,1,21.922,4.270,1,24.595,0.000
1,128,2,21.922,4.270,1,23.141,0.000
1,128,3,21.922,4.270,1,20.306,0.000
1,128,4,21.922,4.270,1,14.170,0.000
1,128,5,21.922,4.270,1,23.696,0.000
1,128,6,21.922,4.270,1,17.929,0.000
1,128,7,21.922,4.270,1,22.820,0.000
1,128,8,21.922,4.270,1,20.927,0.000
1,128,9,21.922,4.270,1,29.233,0.000
1,128,10,21.922,4.270,1,23.960,0.000
1,129,1,-1.665,1.285,1,-3.136,0.000
1,129,2,-1.665,1.285,2,2.765,0.000
1,129,3,-1.665,1.285,2,7.044,0.000
1,129,4,-1.665,1.285,2,1.698,0.000
1,129,5,-1.665,1.285,2,2.963,0.000
1,129,6,-1.665,1.285,2,6.720,0.000
1,129,7,-1.665,1.285,2,5.334,0.000
1,129,8,-1.665,1.285,2,3.723,0.000
1,129,9,-1.665,1.285,2,2.877,0.000
1,129,10,-1.665,1.285,2,0.249,0.000
1,130,1,3.441,-2.694,1,5.119,0.000
1,130,2,3.441,-2.694,2,-0.374,0.000
1,130,3,3.441,-2.694,1,1.558,0.000
1,130,4,3.441,-2.694,1,1.766,0.000
1,130,5,3.441,-2.694,1,5.087,0.000
1,130,6,3.441,-2.694,1,2.484,0.000
1,130,7,3.441,-2.694,1,-3.960,0.000
1,130,8,3.441,-2.694,1,3.947,0.000
1,130,9,3.441,-2.694,1,5.409,0.000
1,130,10,3.441,-2.694,1,3.840,0.000
1,131,1,-8.795,1.458,1,-17.959,0.000
1,131,2,-8.795,1.458,2,4.642,0.000
1,131,3,-8.795,1.458,2,0.645,0.000
1,131,4,-8.795,1.458,2,-0.767,0.000
1,131,5,-8.795,1.458,2,-0.927,0.000
1,131,6,-8.795,1.458,2,4.475,0.000
1,131,7,-8.795,1.458,2,3.646,0.000
1,131,8,-8.795,1.458,2,2.951,0.000
1,131,9,-8.795,1.458,2,3.934,0.000
1,131,10,-8.795,1.458,2,-0.873,0.000
1,132,1,8.753,10.133,1,9.543,0.000
1,132,2,8.753,10.133,1,15.218,0.000
1,132,3,8.753,10.133,1,12.338,0.000
1,132,4,8.753,10.133,1,11.210,0.000
1,132,5,8.753,10.133,1,7.876,0.000
1,132,6,8.753,10.133,1,10.078,0.000
1,132,7,8.753,10.133,1,10.052,0.000
1,132,8,8.753,10.133,1,8.193,0.000
1,132,9,8.753,10.133,1,12.218,0.000
1,132,10,8.753,10.133,1,6.950,0.000
1,133,1,12.536,14.317,1,15.000,0.000
1,133,2,12.536,14.317,1,13.927,0.000
1,133,3,12.536,14.317,1,13.877,0.000
1,133,4,12.536,14.317,1,14.874,0.000
1,133,5,12.536,14.317,1,13.591,0.000
1,133,6,12.536,14.317,1,12.043,0.000
1,133,7,12.536,14.317,1,13.304,0.000
1,133,8,12.536,14.317,1,11.702,0.000
1,133,9,12.536,14.317,1,12.658,0.000
1,133,10,12.536,14.317,1,13.663,0.000
1,134,1,-21.839,-9.402,1,-22.388,0.000
1,134,2,-21.839,-9.402,2,-7.504,0.000
1,134,3,-21.839,-9.402,2,-8.267,0.000
1,134,4,-21.839,-9.402,2,-5.670,0.000
1,134,5,-21.839,-9.402,2,-15.195,0.000
1,134,6,-21.839,-9.402,2,-7.401,0.000
1,134,7,-21.839,-9.402,2,-9.463,0.000
1,134,8,-21.839,-9.402,2,-10.561,0.000
1,134,9,-21.839,-9.402,2,-8.512,0.000
1,134,10,-21.839,-9.402,2,-3.809,0.000
1,135,1,11.797,11.286,1,10.993,0.000
1,135,2,11.797,11.286,1,16.973,0.000
1,135,3,11.797,11.286,1,11.320,0.000
1,135,4,11.797,11.286,1,13.448,0.000
1,135,5,11.797,11.286,1,20.545,0.000
1,135,6,11.797,11.286,1,10.411,0.000
1,135,7,11.797,11.286,1,12.070,0.000
1,135,8,11.797,11.286,1,14.255,0.000
1,135,9,11.797,11.286,1,15.794,0.000
1,135,10,11.797,11.286,1,13.728,0.000
1,136,1,4.981,-5.465,1,5.817,0.000
1,136,2,4.981,-5.465,2,-4.244,0.000
1,136,3,4.981,-5.465,1,6.512,0.000
1,136,4,4.981,-5.465,1,5.586,0.000
1,136,5,4.981,-5.465,1,5.594,0.000
1,136,6,4.981,-5.465,1,2.012,0.000
1,136,7,4.981,-5.465,1,3.790,0.000
1,136,8,4.981,-5.465,1,2.989,0.000
1,136,9,4.981,-5.465,1,0.165,0.000
1,136,10,4.981,-5.465,1,4.365,0.000
1,137,1,9.411,-9.067,1,7.731,0.000
1,137,2,9.411,-9.067,1,5.749,0.000
1,137,3,9.411,-9.067,1,8.641,0.000
1,137,4,9.411,-9.067,1,8.614,0.000
1,137,5,9.411,-9.067,1,10.547,0.000
1,137,6,9.411,-9.067,1,9.763,0.000
1,137,7,9.411,-9.067,1,4.442,0.000
1,137,8,9.411,-9.067,1,8.141,0.000
1,137,9,9.411,-9.067,1,11.188,0.000
1,137,10,9.411,-9.067,1,9.537,0.000
1,138,1,9.958,7.493,1,12.968,0.000
1,138,2,9.958,7.493,1,10.283,0.000
1,138,3,9.958,7.493,1,13.176,0.000
1,138,4,9.958,7.493,1,5.174,0.000
1,138,5,9.958,7.493,1,9.329,0.000
1,138,6,9.958,7.493,1,10.072,0.000
1,138,7,9.958,7.493,1,8.962,0.000
1,138,8,9.958,7.493,1,9.550,0.000
1,138,9,9.958,7.493,1,10.549,0.000
1,138,10,9.958,7.493,1,3.341,0.000
1,139,1,3.909,9.692,1,0.788,0.000
1,139,2,3.909,9.692,2,10.765,0.000
1,139,3,3.909,9.692,2,12.478,0.000
1,139,4,3.909,9.692,2,9.010,0.000
1,139,5,3.909,9.692,2,9.748,0.000
1,139,6,3.909,9.692,2,11.421,0.000
1,139,7,3.909,9.692,2,14.259,0.000
1,139,8,3.909,9.692,2,10.449,0.000
1,139,9,3.909,9.692,2,6.750,0.000
1,139,10,3.909,9.692,2,13.091,0.000
1,140,1,6.367,-15.566,1,2.944,0.000
1,140,2,6.367,-15.566,2,-17.889,0.000
1,140,3,6.367,-15.566,1,4.763,0.000
1,140,4,6.367,-15.566,1,4.191,0.000
1,140,5,6.367,-15.566,1,7.789,0.000
1,140,6,6.367,-15.566,1,9.046,0.000
1,140,7,6.367,-15.566,1,6.425,0.000
1,140,8,6.367,-15.566,1,12.323,0.000
1,140,9,6.367,-15.566,1,8.506,0.000
1,140,10,6.367,-15.566,1,6.195,0.000
1,141,1,12.923,0.702,1,12.414,0.000
1,141,2,12.923,0.702,1,12.430,0.000
1,141,3,12.923,0.702,1,10.613,0.000
1,141,4,12.923,0.702,1,8.006,0.000
1,141,5,12.923,0.702,1,11.273,0.000
1,141,6,12.923,0.702,1,13.531,0.000
1,141,7,12.923,0.702,1,11.608,0.000
1,141,8,12.923,0.702,1,12.689,0.000
1,141,9,12.923,0.702,1,8.031,0.000
1,141,10,12.923,0.702,1,12.452,0.000
1,142,1,13.336,9.206,1,10.417,0.000
1,142,2,13.336,9.206,1,13.842,0.000
1,142,3,13.336,9.206,1,6.794,0.000
1,142,4,13.336,9.206,1,9.442,0.000
1,142,5,13.336,9.206,1,6.997,0.000
1,142,6,13.336,9.206,1,15.135,0.000
1,142,7,13.336,9.206,1,16.963,0.000
1,142,8,13.336,9.206,1,14.385,0.000
1,142,9,13.336,9.206,1,17.680,0.000
1,142,10,13.336,9.206,1,11.907,0.000
1,143,1,7.385,6.122,1,7.950,0.000
1,143,2,7.385,6.122,2,4.479,0.000
1,143,3,7.385,6.122,1,9.230,0.000
1,143,4,7.385,6.122,1,16.309,0.000
1,143,5,7.385,6.122,1,-0.430,0.000
1,143,6,7.385,6.122,1,7.918,0.000
1,143,7,7.385,6.122,1,8.991,0.000
1,143,8,7.385,6.122,1,9.525,0.000
1,143,9,7.385,6.122,1,13.336,0.000
1,143,10,7.385,6.122,1,6.310,0.000
1,144,1,22.637,12.499,1,18.379,0.000
1,144,2,22.637,12.499,1,20.846,0.000
1,144,3,22.637,12.499,1,21.828,0.000
1,144,4,22.637,12.499,1,23.303,0.000
1,144,5,22.637,12.499,1,23.325,0.000
1,144,6,22.637,12.499,1,20.682,0.000
1,144,7,22.637,12.499,1,23.674,0.000
1,144,8,22.637,12.499,1,27.693,0.000
1,144,9,22.637,12.499,1,22.888,0.000
1,144,10,22.637,12.499,1,19.552,0.000
1,145,1,-11.856,-5.688,1,-12.100,0.000
1,145,2,-11.856,-5.688,2,0.640,0.000
1,145,3,-11.856,-5.688,2,-7.113,0.000
1,145,4,-11.856,-5.688,2,-2.501,0.000
1,145,5,-11.856,-5.688,2,-3.937,0.000
1,145,6,-11.856,-5.688,2,-1.874,0.000
1,145,7,-11.856,-5.688,2,-4.586,0.000
1,145,8,-11.856,-5.688,2,-6.026,0.000
1,145,9,-11.856,-5.688,2,-2.844,0.000
1,145,10,-11.856,-5.688,2,-0.998,0.000
1,146,1,5.044,-15.092,1,1.634,0.000
1,146,2,5.044,-15.092,2,-18.315,0.000
1,146,3,5.044,-15.092,1,5.067,0.000
1,146,4,5.044,-15.092,1,5.141,0.000
1,146,5,5.044,-15.092,1,6.934,0.000
1,146,6,5.044,-15.092,1,10.844,0.000
1,146,7,5.044,-15.092,1,4.623,0.000
1,146,8,5.044,-15.092,1,2.341,0.000
1,146,9,5.044,-15.092,1,-0.099,0.000
1,146,10,5.044,-15.092,1,-2.681,0.000
1,147,1,10.075,-2.777,1,17.779,0.000
1,147,2,10.075,-2.777,1,15.671,0.000
1,147,3,10.075,-2.777,1,5.454,0.000
1,147,4,10.075,-2.777,1,12.386,0.000
1,147,5,10.075,-2.777,1,10.871,0.000
1,147,6,10.075,-2.777,1,4.284,0.000
1,147,7,10.075,-2.777,1,10.747,0.000
1,147,8,10.075,-2.777,1,6.041,0.000
1,147,9,10.075,-2.777,1,13.322,0.000
1,147,10,10.075,-2.777,1,6.390,0.000
1,148,1,5.301,10.182,1,7.406,0.000
1,148,2,5.301,10.182,1,5.101,0.000
1,148,3,5.301,10.182,1,6.290,0.000
1,148,4,5.301,10.182,1,7.668,0.000
1,148,5,5.301,10.182,1,4.365,0.000
1,148,6,5.301,10.182,1,7.678,0.000
1,148,7,5.301,10.182,1,2.606,0.000
1,148,8,5.301,10.182,1,7.604,0.000
1,148,9,5.301,10.182,1,2.658,0.000
1,148,10,5.301,10.182,1,7.297,0.000
1,149,1,6.032,-9.370,1,9.413,0.000
1,149,2,6.032,-9.370,1,5.180,0.000
1,149,3,6.032,-9.370,1,6.960,0.000
1,149,4,6.032,-9.370,1,5.085,0.000
1,149,5,6.032,-9.370,1,12.615,0.000
1,149,6,6.032,-9.370,1,1.449,0.000
1,149,7,6.032,-9.370,1,11.590,0.000
1,149,8,6.032,-9.370,1,4.977,0.000
1,149,9,6.032,-9.370,1,7.163,0.000
1,149,10,6.032,-9.370,1,5.464,0.000
1,150,1,2.980,-11.820,1,3.106,0.000
1,150,2,2.980,-11.820,2,-12.961,0.000
1,150,3,2.980,-11.820,1,-3.423,0.000
1,150,4,2.980,-11.820,1,1.681,0.000
1,150,5,2.980,-11.820,1,6.774,0.000
1,150,6,2.980,-11.820,1,5.821,0.000
1,150,7,2.980,-11.820,1,4.068,0.000
1,150,8,2.980,-11.820,1,9.263,0.000
1,150,9,2.980,-11.820,1,2.532,0.000
1,150,10,2.980,-11.820,1,-0.940,0.000
1,151,1,-0.916,-9.897,1,-4.725,0.000
1,151,2,-0.916,-9.897,2,-3.175,0.000
1,151,3,-0.916,-9.897,2,-8.126,0.000
1,151,4,-0.916,-9.897,1,-1.628,0.000
1,151,5,-0.916,-9.897,1,4.881,0.000
1,151,6,-0.916,-9.897,1,-3.155,0.000
1,151,7,-0.916,-9.897,1,-3.138,0.000
1,151,8,-0.916,-9.897,1,-3.226,0.000
1,151,9,-0.916,-9.897,1,-3.907,0.000
1,151,10,-0.916,-9.897,1,5.338,0.000
1,152,1,11.831,1.969,1,11.282,0.000
1,152,2,11.831,1.969,1,10.860,0.000
1,152,3,11.831,1.969,1,9.598,0.000
1,152,4,11.831,1.969,1,12.465,0.000
1,152,5,11.831,1.969,1,11.858,0.000
1,152,6,11.831,1.969,1,11.356,0.000
1,152,7,11.831,1.969,1,13.611,0.000
1,152,8,11.831,1.969,1,16.065,0.000
1,152,9,11.831,1.969,1,9.183,0.000
1,152,10,11.831,1.969,1,14.693,0.000
1,153,1,4.043,3.656,1,3.072,0.000
1,153,2,4.043,3.656,2,2.773,0.000
1,153,3,4.043,3.656,2,-0.474,0.000
1,153,4,4.043,3.656,1,3.795,0.000
1,153,5,4.043,3.656,1,1.365,0.000
1,153,6,4.043,3.656,1,3.341,0.000
1,153,7,4.043,3.656,1,0.833,0.000
1,153,8,4.043,3.656,1,1.801,0.000
1,153,9,4.043,3.656,1,-0.566,0.000
1,153,10,4.043,3.656,1,5.567,0.000
1,154,1,-10.098,-4.372,1,-5.275,0.000
1,154,2,-10.098,-4.372,2,-10.510,0.000
1,154,3,-10.098,-4.372,1,-13.882,0.000
1,154,4,-10.098,-4.372,2,-4.324,0.000
1,154,5,-10.098,-4.372,2,-4.469,0.000
1,154,6,-10.098,-4.372,2,-5.915,0.000
1,154,7,-10.098,-4.372,2,-0.929,0.000
1,154,8,-10.098,-4.372,2,-8.674,0.000
1,154,9,-10.098,-4.372,2,-0.651,0.000
1,154,10,-10.098,-4.372,2,-4.936,0.000
1,155,1,11.878,8.812,1,14.730,0.000
1,155,2,11.878,8.812,1,13.430,0.000
1,155,3,11.878,8.812,1,8.275,0.000
1,155,4,11.878,8.812,1,8.565,0.000
1,155,5,11.878,8.812,1,11.791,0.000
1,155,6,11.878,8.812,1,7.064,0.000
1,155,7,11.878,8.812,1,9.658,0.000
1,155,8,11.878,8.812,1,11.930,0.000
1,155,9,11.878,8.812,1,17.318,0.000
1,155,10,11.878,8.812,1,8.637,0.000
1,156,1,7.235,-21.435,1,7.195,0.000
1,156,2,7.235,-21.435,1,12.531,0.000
1,156,3,7.235,-21.435,1,0.310,0.000
1,156,4,7.235,-21.435,1,11.292,0.000
1,156,5,7.235,-21.435,1,5.340,0.000
1,156,6,7.235,-21.435,1,11.363,0.000
1,156,7,7.235,-21.435,1,10.081,0.000
1,156,8,7.235,-21.435,1,6.319,0.000
1,156,9,7.235,-21.435,1,0.939,0.000
1,156,10,7.235,-21.435,1,9.029,0.000
1,157,1,20.979,-3.281,1,18.939,0.000
1,157,2,20.979,-3.281,1,23.700,0.000
1,157,3,20.979,-3.281,1,23.500,0.000
1,157,4,20.979,-3.281,1,14.178,0.000
1,157,5,20.979,-3.281,1,21.069,0.000
1,157,6,20.979,-3.281,1,17.555,0.000
1,157,7,20.979,-3.281,1,22.579,0.000
1,157,8,20.979,-3.281,1,17.750,0.000
1,157,9,20.979,-3.281,1,19.624,0.000
1,157,10,20.979,-3.281,1,23.185,0.000
1,158,1,7.006,9.308,1,4.697,0.000
1,158,2,7.006,9.308,2,12.807,0.000
1,158,3,7.006,9.308,2,6.313,0.000
1,158,4,7.006,9.308,2,7.943,0.000
1,158,5,7.006,9.308,2,7.970,0.000
1,158,6,7.006,9.308,2,12.540,0.000
1,158,7,7.006,9.308,2,10.923,0.000
1,158,8,7.006,9.308,2,10.064,0.000
1,158,9,7.006,9.308,2,12.788,0.000
1,158,10,7.006,9.308,2,7.369,0.000
1,159,1,2.387,-0.459,1,-1.429,0.000
1,159,2,2.387,-0.459,2,-2.838,0.000
1,159,3,2.387,-0.459,1,0.958,0.000
1,159,4,2.387,-0.459,1,-1.387,0.000
1,159,5,2.387,-0.459,1,0.186,0.000
1,159,6,2.387,-0.459,1,2.869,0.000
1,159,7,2.387,-0.459,1,-3.478,0.000
1,159,8,2.387,-0.459,1,0.146,0.000
1,159,9,2.387,-0.459,1,4.784,0.000
1,159,10,2.387,-0.459,1,3.463,0.000
1,160,1,4.397,4.200,1,0.429,0.000
1,160,2,4.397,4.200,2,7.373,0.000
1,160,3,4.397,4.200,2,3.026,0.000
1,160,4,4.397,4.200,2,4.956,0.000
1,160,5,4.397,4.200,2,6.388,0.000
1,160,6,4.397,4.200,2,2.603,0.000
1,160,7,4.397,4.200,2,-0.653,0.000
1,160,8,4.397,4.200,2,0.775,0.000
1,160,9,4.397,4.200,2,6.122,0.000
1,160,10,4.397,4.200,2,1.093,0.000
1,161,1,14.731,-4.323,1,19.888,0.000
1,161,2,14.731,-4.323,1,19.225,0.000
1,161,3,14.731,-4.323,1,14.010,0.000
1,161,4,14.731,-4.323,1,15.507,0.000
1,161,5,14.731,-4.323,1,18.078,0.000
1,161,6,14.731,-4.323,1,14.076,0.000
1,161,7,14.731,-4.323,1,6.698,0.000
1,161,8,14.731,-4.323,1,12.605,0.000
1,161,9,14.731,-4.323,1,13.726,0.000
1,161,10,14.731,-4.323,1,15.271,0.000
1,162,1,15.467,-2.110,1,17.514,0.000
1,162,2,15.467,-2.110,1,13.130,0.000
1,162,3,15.467,-2.110,1,16.772,0.000
1,162,4,15.467,-2.110,1,18.362,0.000
1,162,5,15.467,-2.110,1,12.953,0.000
1,162,6,15.467,-2.110,1,16.101,0.000
1,162,7,15.467,-2.110,1,8.704,0.000
1,162,8,15.467,-2.110,1,17.620,0.000
1,162,9,15.467,-2.110,1,21.318,0.000
1,162,10,15.467,-2.110,1,13.707,0.000
1,163,1,0.644,7.342,1,1.528,0.000
1,163,2,0.644,7.342,2,8.371,0.000
1,163,3,0.644,7.342,2,10.205,0.000
1,163,4,0.644,7.342,2,1.651,0.000
1,163,5,0.644,7.342,2,7.078,0.000
1,163,6,0.644,7.342,2,3.766,0.000
1,163,7,0.644,7.342,2,7.764,0.000
1,163,8,0.644,7.342,2,9.988,0.000
1,163,9,0.644,7.342,2,6.840,0.000
1,163,10,0.644,7.342,2,4.250,0.000
1,164,1,10.662,19.649,1,8.966,0.000
1,164,2,10.662,19.649,1,12.725,0.000
1,164,3,10.662,19.649,1,11.840,0.000
1,164,4,10.662,19.649,1,10.462,0.000
1,164,5,10.662,19.649,1,10.571,0.000
1,164,6,10.662,19.649,1,4.677,0.000
1,164,7,10.662,19.649,1,11.305,0.000
1,164,8,10.662,19.649,1,13.179,0.000
1,164,9,10.662,19.649,1,9.733,0.000
1,164,10,10.662,19.649,1,11.675,0.000
1,165,1,6.050,-10.200,1,7.990,0.000
1,165,2,6.050,-10.200,1,5.817,0.000
1,165,3,6.050,-10.200,1,6.237,0.000
1,165,4,6.050,-10.200,1,8.893,0.000
1,165,5,6.050,-10.200,1,4.071,0.000
1,165,6,6.050,-10.200,1,4.429,0.000
1,165,7,6.050,-10.200,1,4.325,0.000
1,165,8,6.050,-10.200,1,4.307,0.000
1,165,9,6.050,-10.200,1,2.204,0.000
1,165,10,6.050,-10.200,1,10.072,0.000
1,166,1,4.636,-15.228,1,-0.957,0.000
1,166,2,4.636,-15.228,2,-17.900,0.000
1,166,3,4.636,-15.228,1,0.676,0.000
1,166,4,4.636,-15.228,1,5.835,0.000
1,166,5,4.636,-15.228,1,5.137,0.000
1,166,6,4.636,-15.228,1,6.642,0.000
1,166,7,4.636,-15.228,1,2.850,0.000
1,166,8,4.636,-15.228,1,1.133,0.000
1,166,9,4.636,-15.228,1,4.345,0.000
1,166,10,4.636,-15.228,1,8.446,0.000
1,167,1,-6.189,-15.754,1,-5.676,0.000
1,167,2,-6.189,-15.754,2,-12.161,0.000
1,167,3,-6.189,-15.754,1,-10.546,0.000
1,167,4,-6.189,-15.754,2,-20.607,0.000
1,167,5,-6.189,-15.754,1,-7.140,0.000
1,167,6,-6.189,-15.754,1,-7.445,0.000
1,167,7,-6.189,-15.754,1,-10.046,0.000
1,167,8,-6.189,-15.754,1,-6.714,0.000
1,167,9,-6.189,-15.754,1,-6.266,0.000
1,167,10,-6.189,-15.754,1,-7.722,0.000
1,168,1,-1.068,6.800,1,-2.605,0.000
1,168,2,-1.068,6.800,2,7.869,0.000
1,168,3,-1.068,6.800,2,6.096,0.000
1,168,4,-1.068,6.800,2,5.007,0.000
1,168,5,-1.068,6.800,2,5.327,0.000
1,168,6,-1.068,6.800,2,4.245,0.000
1,168,7,-1.068,6.800,2,11.180,0.000
1,168,8,-1.068,6.800,2,10.024,0.000
1,168,9,-1.068,6.800,2,7.191,0.000
1,168,10,-1.068,6.800,2,12.372,0.000
1,169,1,7.405,-9.910,1,8.705,0.000
1,169,2,7.405,-9.910,1,9.485,0.000
1,169,3,7.405,-9.910,1,5.021,0.000
1,169,4,7.405,-9.910,1,6.099,0.000
1,169,5,7.405,-9.910,1,11.955,0.000
1,169,6,7.405,-9.910,1,2.311,0.000
1,169,7,7.405,-9.910,1,9.566,0.000
1,169,8,7.405,-9.910,1,6.754,0.000
1,169,9,7.405,-9.910,1,12.851,0.000
1,169,10,7.405,-9.910,1,9.702,0.000
1,170,1,9.861,-15.944,1,14.198,0.000
1,170,2,9.861,-15.944,1,7.175,0.000
1,170,3,9.861,-15.944,1,9.511,0.000
1,170,4,9.861,-15.944,1,12.633,0.000
1,170,5,9.861,-15.944,1,11.100,0.000
1,170,6,9.861,-15.944,1,11.645,0.000
1,170,7,9.861,-15.944,1,8.488,0.000
1,170,8,9.861,-15.944,1,6.578,0.000
1,170,9,9.861,-15.944,1,12.870,0.000
1,170,10,9.861,-15.944,1,16.633,0.000
1,171,1,-3.393,16.348,1,-0.397,0.000
1,171,2,-3.393,16.348,2,14.384,0.000
1,171,3,-3.393,16.348,2,19.616,0.000
1,171,4,-3.393,16.348,2,15.190,0.000
1,171,5,-3.393,16.348,2,21.104,0.000
1,171,6,-3.393,16.348,2,17.826,0.000
1,171,7,-3.393,16.348,2,16.472,0.000
1,171,8,-3.393,16.348,2,16.145,0.000
1,171,9,-3.393,16.348,2,14.874,0.000
1,171,10,-3.393,16.348,2,15.575,0.000
1,172,1,-10.495,1.336,1,-10.152,0.000
1,172,2,-10.495,1.336,2,-0.565,0.000
1,172,3,-10.495,1.336,2,0.690,0.000
1,172,4,-10.495,1.336,2,3.537,0.000
1,172,5,-10.495,1.336,2,-2.170,0.000
1,172,6,-10.495,1.336,2,-2.967,0.000
1,172,7,-10.495,1.336,2,2.451,0.000
1,172,8,-10.495,1.336,2,-2.388,0.000
1,172,9,-10.495,1.336,2,5.834,0.000
1,172,10,-10.495,1.336,2,3.093,0.000
1,173,1,-5.667,-8.744,1,-7.099,0.000
1,173,2,-5.667,-8.744,2,-4.317,0.000
1,173,3,-5.667,-8.744,2,-8.910,0.000
1,173,4,-5.667,-8.744,1,-5.183,0.000
1,173,5,-5.667,-8.744,1,-3.621,0.000
1,173,6,-5.667,-8.744,1,-4.369,0.000
1,173,7,-5.667,-8.744,1,-3.121,0.000
1,173,8,-5.667,-8.744,1,-4.992,0.000
1,173,9,-5.667,-8.744,1,-11.092,0.000
1,173,10,-5.667,-8.744,1,-4.852,0.000
1,174,1,-5.000,-6.863,1,-4.001,0.000
1,174,2,-5.000,-6.863,2,-8.166,0.000
1,174,3,-5.000,-6.863,1,-3.746,0.000
1,174,4,-5.000,-6.863,1,-2.925,0.000
1,174,5,-5.000,-6.863,1,-6.816,0.000
1,174,6,-5.000,-6.863,1,-2.322,0.000
1,174,7,-5.000,-6.863,1,-4.503,0.000
1,174,8,-5.000,-6.863,1,-6.221,0.000
1,174,9,-5.000,-6.863,1,-2.084,0.000
1,174,10,-5.000,-6.863,1,-5.509,0.000
1,175,1,16.734,-12.963,1,20.138,0.000
1,175,2,16.734,-12.963,1,14.673,0.000
1,175,3,16.734,-12.963,1,16.775,0.000
1,175,4,16.734,-12.963,1,16.881,0.000
1,175,5,16.734,-12.963,1,14.642,0.000
1,175,6,16.734,-12.963,1,17.818,0.000
1,175,7,16.734,-12.963,1,16.687,0.000
1,175,8,16.734,-12.963,1,12.744,0.000
1,175,9,16.734,-12.963,1,12.946,0.000
1,175,10,16.734,-12.963,1,15.765,0.000
1,176,1,0.057,14.228,1,1.022,0.000
1,176,2,0.057,14.228,2,13.209,0.000
1,176,3,0.057,14.228,2,14.126,0.000
1,176,4,0.057,14.228,2,10.265,0.000
1,176,5,0.057,14.228,2,15.012,0.000
1,176,6,0.057,14.228,2,13.961,0.000
1,176,7,0.057,14.228,2,19.828,0.000
1,176,8,0.057,14.228,2,17.172,0.000
1,176,9,0.057,14.228,2,12.257,0.000
1,176,10,0.057,14.228,2,11.162,0.000
1,177,1,8.324,8.809,1,5.049,0.000
1,177,2,8.324,8.809,2,7.930,0.000
1,177,3,8.324,8.809,2,8.917,0.000
1,177,4,8.324,8.809,2,11.701,0.000
1,177,5,8.324,8.809,2,7.463,0.000
1,177,6,8.324,8.809,2,8.173,0.000
1,177,7,8.324,8.809,2,10.282,0.000
1,177,8,8.324,8.809,2,8.777,0.000
1,177,9,8.324,8.809,2,9.216,0.000
1,177,10,8.324,8.809,2,8.802,0.000
1,178,1,2.249,3.491,1,-4.330,0.000
1,178,2,2.249,3.491,2,1.152,0.000
1,178,3,2.249,3.491,2,0.022,0.000
1,178,4,2.249,3.491,2,5.189,0.000
1,178,5,2.249,3.491,2,3.779,0.000
1,178,6,2.249,3.491,2,-0.921,0.000
1,178,7,2.249,3.491,2,14.361,0.000
1,178,8,2.249,3.491,2,3.165,0.000
1,178,9,2.249,3.491,2,5.323,0.000
1,178,10,2.249,3.491,2,6.061,0.000
1,179,1,-9.002,15.581,1,-11.039,0.000
1,179,2,-9.002,15.581,2,19.455,0.000
1,179,3,-9.002,15.581,2,13.503,0.000
1,179,4,-9.002,15.581,2,17.364,0.000
1,179,5,-9.002,15.581,2,18.687,0.000
1,179,6,-9.002,15.581,2,18.126,0.000
1,179,7,-9.002,15.581,2,14.448,0.000
1,179,8,-9.002,15.581,2,16.574,0.000
1,179,9,-9.002,15.581,2,13.528,0.000
1,179,10,-9.002,15.581,2,21.874,0.000
1,180,1,-7.118,6.103,1,-10.137,0.000
1,180,2,-7.118,6.103,2,2.543,0.000
1,180,3,-7.118,6.103,2,12.469,0.000
1,180,4,-7.118,6.103,2,6.550,0.000
1,180,5,-7.118,6.103,2,8.911,0.000
1,180,6,-7.118,6.103,2,6.531,0.000
1,180,7,-7.118,6.103,2,3.957,0.000
1,180,8,-7.118,6.103,2,6.741,0.000
1,180,9,-7.118,6.103,2,-0.214,0.000
1,180,10,-7.118,6.103,2,1.462,0.000
1,181,1,14.354,-3.185,1,10.065,0.000
1,181,2,14.354,-3.185,1,14.818,0.000
1,181,3,14.354,-3.185,1,17.466,0.000
1,181,4,14.354,-3.185,1,18.546,0.000
1,181,5,14.354,-3.185,1,13.236,0.000
1,181,6,14.354,-3.185,1,15.235,0.000
1,181,7,14.354,-3.185,1,7.017,0.000
1,181,8,14.354,-3.185,1,19.958,0.000
1,181,9,14.354,-3.185,1,14.113,0.000
1,181,10,14.354,-3.185,1,14.746,0.000
1,182,1,-6.387,8.374,1,-6.132,0.000
1,182,2,-6.387,8.374,2,9.653,0.000
1,182,3,-6.387,8.374,2,7.471,0.000
1,182,4,-6.387,8.374,2,8.901,0.000
1,182,5,-6.387,8.374,2,6.090,0.000
1,182,6,-6.387,8.374,2,13.265,0.000
1,182,7,-6.387,8.374,2,10.247,0.000
1,182,8,-6.387,8.374,2,11.751,0.000
1,182,9,-6.387,8.374,2,4.876,0.000
1,182,10,-6.387,8.374,2,3.418,0.000
1,183,1,-3.947,-15.824,1,-0.848,0.000
1,183,2,-3.947,-15.824,2,-12.198,0.000
1,183,3,-3.947,-15.824,1,-11.422,0.000
1,183,4,-3.947,-15.824,1,-5.958,0.000
1,183,5,-3.947,-15.824,1,-3.434,0.000
1,183,6,-3.947,-15.824,1,-4.522,0.000
1,183,7,-3.947,-15.824,1,-3.834,0.000
1,183,8,-3.947,-15.824,1,-3.160,0.000
1,183,9,-3.947,-15.824,1,2.521,0.000
1,183,10,-3.947,-15.824,1,-3.000,0.000
1,184,1,0.054,4.350,1,-0.484,0.000
1,184,2,0.054,4.350,2,-1.941,0.000
1,184,3,0.054,4.350,1,2.500,0.000
1,184,4,0.054,4.350,1,2.453,0.000
1,184,5,0.054,4.350,1,-1.301,0.000
1,184,6,0.054,4.350,1,-5.357,0.000
1,184,7,0.054,4.350,1,-2.236,0.000
1,184,8,0.054,4.350,1,-0.684,0.000
1,184,9,0.054,4.350,1,2.905,0.000
1,184,10,0.054,4.350,1,3.975,0.000
1,185,1,-0.414,3.154,1,-4.823,0.000
1,185,2,-0.414,3.154,2,3.288,0.000
1,185,3,-0.414,3.154,2,0.841,0.000
1,185,4,-0.414,3.154,2,3.612,0.000
1,185,5,-0.414,3.154,2,4.109,0.000
1,185,6,-0.414,3.154,2,1.619,0.000
1,185,7,-0.414,3.154,2,3.816,0.000
1,185,8,-0.414,3.154,2,4.125,0.000
1,185,9,-0.414,3.154,2,0.432,0.000
1,185,10,-0.414,3.154,2,-3.204,0.000
1,186,1,3.276,2.983,1,-4.117,0.000
1,186,2,3.276,2.983,2,0.687,0.000
1,186,3,3.276,2.983,2,4.417,0.000
1,186,4,3.276,2.983,2,2.018,0.000
1,186,5,3.276,2.983,2,3.681,0.000
1,186,6,3.276,2.983,2,1.414,0.000
1,186,7,3.276,2.983,2,-0.761,0.000
1,186,8,3.276,2.983,2,0.549,0.000
1,186,9,3.276,2.983,2,4.990,0.000
1,186,10,3.276,2.983,2,3.315,0.000
1,187,1,10.184,3.066,1,10.564,0.000
1,187,2,10.184,3.066,1,10.026,0.000
1,187,3,10.184,3.066,1,11.330,0.000
1,187,4,10.184,3.066,1,11.808,0.000
1,187,5,10.184,3.066,1,4.689,0.000
1,187,6,10.184,3.066,1,8.821,0.000
1,187,7,10.184,3.066,1,8.154,0.000
1,187,8,10.184,3.066,1,11.498,0.000
1,187,9,10.184,3.066,1,11.489,0.000
1,187,10,10.184,3.066,1,9.539,0.000
1,188,1,-0.780,-9.432,1,-1.717,0.000
1,188,2,-0.780,-9.432,2,-11.568,0.000
1,188,3,-0.780,-9.432,1,-6.770,0.000
1,188,4,-0.780,-9.432,1,-2.338,0.000
1,188,5,-0.780,-9.432,1,-0.554,0.000
1,188,6,-0.780,-9.432,1,-1.216,0.000
1,188,7,-0.780,-9.432,1,5.369,0.000
1,188,8,-0.780,-9.432,1,4.489,0.000
1,188,9,-0.780,-9.432,1,-3.904,0.000
1,188,10,-0.780,-9.432,1,-2.316,0.000
1,189,1,-13.370,8.756,1,-11.951,0.000
1,189,2,-13.370,8.756,2,4.432,0.000
1,189,3,-13.370,8.756,2,9.883,0.000
1,189,4,-13.370,8.756,2,0.982,0.000
1,189,5,-13.370,8.756,2,9.172,0.000
1,189,6,-13.370,8.756,2,6.572,0.000
1,189,7,-13.370,8.756,2,7.119,0.000
1,189,8,-13.370,8.756,2,4.676,0.000
1,189,9,-13.370,8.756,2,9.268,0.000
1,189,10,-13.370,8.756,2,13.243,0.000
1,190,1,0.257,11.995,1,3.125,0.000
1,190,2,0.257,11.995,2,13.253,0.000
1,190,3,0.257,11.995,2,8.301,0.000
1,190,4,0.257,11.995,2,11.251,0.000
1,190,5,0.257,11.995,2,11.960,0.000
1,190,6,0.257,11.995,2,11.873,0.000
1,190,7,0.257,11.995,2,13.427,0.000
1,190,8,0.257,11.995,2,9.525,0.000
1,190,9,0.257,11.995,2,9.881,0.000
1,190,10,0.257,11.995,2,13.428,0.000
1,191,1,3.496,-0.209,1,0.820,0.000
1,191,2,3.496,-0.209,2,6.444,0.000
1,191,3,3.496,-0.209,2,-0.543,0.000
1,191,4,3.496,-0.209,2,-1.005,0.000
1,191,5,3.496,-0.209,1,-1.563,0.000
1,191,6,3.496,-0.209,1,3.874,0.000
1,191,7,3.496,-0.209,1,5.234,0.000
1,191,8,3.496,-0.209,1,7.269,0.000
1,191,9,3.496,-0.209,1,2.462,0.000
1,191,10,3.496,-0.209,1,0.839,0.000
1,192,1,-4.365,0.488,1,-0.350,0.000
1,192,2,-4.365,0.488,2,1.673,0.000
1,192,3,-4.365,0.488,2,-2.081,0.000
1,192,4,-4.365,0.488,1,2.240,0.000
1,192,5,-4.365,0.488,1,-2.477,0.000
1,192,6,-4.365,0.488,1,-5.057,0.000
1,192,7,-4.365,0.488,1,-3.198,0.000
1,192,8,-4.365,0.488,1,-5.105,0.000
1,192,9,-4.365,0.488,1,-3.602,0.000
1,192,10,-4.365,0.488,1,-7.619,0.000
1,193,1,-9.887,4.530,1,-5.120,0.000
1,193,2,-9.887,4.530,2,1.282,0.000
1,193,3,-9.887,4.530,2,2.433,0.000
1,193,4,-9.887,4.530,2,4.982,0.000
1,193,5,-9.887,4.530,2,3.186,0.000
1,193,6,-9.887,4.530,2,6.415,0.000
1,193,7,-9.887,4.530,2,3.713,0.000
1,193,8,-9.887,4.530,2,5.312,0.000
1,193,9,-9.887,4.530,2,7.719,0.000
1,193,10,-9.887,4.530,2,-0.554,0.000
1,194,1,-3.648,5.816,1,-4.657,0.000
1,194,2,-3.648,5.816,2,2.139,0.000
1,194,3,-3.648,5.816,2,5.392,0.000
1,194,4,-3.648,5.816,2,9.194,0.000
1,194,5,-3.648,5.816,2,4.987,0.000
1,194,6,-3.648,5.816,2,3.848,0.000
1,194,7,-3.648,5.816,2,3.256,0.000
1,194,8,-3.648,5.816,2,6.244,0.000
1,194,9,-3.648,5.816,2,8.013,0.000
1,194,10,-3.648,5.816,2,5.454,0.000
1,195,1,-13.874,1.137,1,-13.038,0.000
1,195,2,-13.874,1.137,2,3.847,0.000
1,195,3,-13.874,1.137,2,-1.622,0.000
1,195,4,-13.874,1.137,2,1.089,0.000
1,195,5,-13.874,1.137,2,3.290,0.000
1,195,6,-13.874,1.137,2,3.269,0.000
1,195,7,-13.874,1.137,2,1.253,0.000
1,195,8,-13.874,1.137,2,4.040,0.000
1,195,9,-13.874,1.137,2,4.804,0.000
1,195,10,-13.874,1.137,2,-1.706,0.000
1,196,1,-23.946,-16.671,1,-24.841,0.000
1,196,2,-23.946,-16.671,2,-13.952,0.000
1,196,3,-23.946,-16.671,2,-8.103,0.000
1,196,4,-23.946,-16.671,2,-15.805,0.000
1,196,5,-23.946,-16.671,2,-22.240,0.000
1,196,6,-23.946,-16.671,2,-17.409,0.000
1,196,7,-23.946,-16.671,2,-17.196,0.000
1,196,8,-23.946,-16.671,2,-17.240,0.000
1,196,9,-23.946,-16.671,2,-17.852,0.000
1,196,10,-23.946,-16.671,2,-15.985,0.000
1,197,1,-10.366,-20.256,1,-11.968,0.000
1,197,2,-10.366,-20.256,2,-24.008,0.000
1,197,3,-10.366,-20.256,1,-14.397,0.000
1,197,4,-10.366,-20.256,2,-19.326,0.000
1,197,5,-10.366,-20.256,1,-12.366,0.000
1,197,6,-10.366,-20.256,1,-11.184,0.000
1,197,7,-10.366,-20.256,1,-8.257,0.000
1,197,8,-10.366,-20.256,1,-12.030,0.000
1,197,9,-10.366,-20.256,1,-14.332,0.000
1,197,10,-10.366,-20.256,1,-16.618,0.000
1,198,1,10.317,-8.662,1,15.136,0.000
1,198,2,10.317,-8.662,1,9.212,0.000
1,198,3,10.317,-8.662,1,8.591,0.000
1,198,4,10.317,-8.662,1,7.609,0.000
1,198,5,10.317,-8.662,1,12.956,0.000
1,198,6,10.317,-8.662,1,15.992,0.000
1,198,7,10.317,-8.662,1,9.969,0.000
1,198,8,10.317,-8.662,1,9.610,0.000
1,198,9,10.317,-8.662,1,12.593,0.000
1,198,10,10.317,-8.662,1,13.671,0.000
1,199,1,11.000,-3.426,1,11.226,0.000
1,199,2,11.000,-3.426,1,7.409,0.000
1,199,3,11.000,-3.426,1,6.008,0.000
1,199,4,11.000,-3.426,1,13.651,0.000
1,199,5,11.000,-3.426,1,15.379,0.000
1,199,6,11.000,-3.426,1,10.524,0.000
1,199,7,11.000,-3.426,1,14.935,0.000
1,199,8,11.000,-3.426,1,11.028,0.000
1,199,9,11.000,-3.426,1,15.355,0.000
1,199,10,11.000,-3.426,1,11.215,0.000
1,200,1,-1.646,-1.731,1,-1.363,0.000
1,200,2,-1.646,-1.731,2,0.524,0.000
1,200,3,-1.646,-1.731,2,-2.645,0.000
1,200,4,-1.646,-1.731,1,-2.114,0.000
1,200,5,-1.646,-1.731,1,-8.337,0.000
1,200,6,-1.646,-1.731,1,-1.502,0.000
1,200,7,-1.646,-1.731,1,-3.738,0.000
1,200,8,-1.646,-1.731,1,-8.735,0.000
1,200,9,-1.646,-1.731,1,-2.250,0.000
1,200,10,-1.646,-1.731,1,-4.935,0.000
2,1,1,-2.749,4.164,1,-4.172,0.000
2,1,2,-2.749,4.164,2,3.437,0.000
2,1,3,-2.749,4.164,2,4.894,0.000
2,1,4,-2.749,4.164,2,5.100,0.000
2,1,5,-2.749,4.164,2,9.814,0.000
2,1,6,-2.749,4.164,2,9.675,0.000
2,1,7,-2.749,4.164,2,4.928,0.000
2,1,8,-2.749,4.164,2,2.963,0.000
2,1,9,-2.749,4.164,2,2.211,0.000
2,1,10,-2.749,4.164,2,4.171,0.000
2,2,1,10.908,3.062,1,6.089,0.000
2,2,2,10.908,3.062,1,9.040,0.000
2,2,3,10.908,3.062,1,6.297,0.000
2,2,4,10.908,3.062,2,5.576,0.000
2,2,5,10.908,3.062,2,3.196,0.000
2,2,6,10.908,3.062,2,-1.332,0.000
2,2,7,10.908,3.062,2,4.035,0.000
2,2,8,10.908,3.062,2,8.116,0.000
2,2,9,10.908,3.062,2,2.507,0.000
2,2,10,10.908,3.062,2,4.421,0.000
2,3,1,-3.779,-5.087,1,1.816,0.000
2,3,2,-3.779,-5.087,2,-5.062,0.000
2,3,3,-3.779,-5.087,1,0.387,0.000
2,3,4,-3.779,-5.087,1,1.518,0.000
2,3,5,-3.779,-5.087,1,-3.739,0.000
2,3,6,-3.779,-5.087,1,-4.672,0.000
2,3,7,-3.779,-5.087,1,-2.628,0.000
2,3,8,-3.779,-5.087,1,-7.986,0.000
2,3,9,-3.779,-5.087,1,-4.147,0.000
2,3,10,-3.779,-5.087,1,2.244,0.000
2,4,1,3.923,5.045,1,2.426,0.000
2,4,2,3.923,5.045,2,2.756,0.000
2,4,3,3.923,5.045,2,6.557,0.000
2,4,4,3.923,5.045,2,-0.087,0.000
2,4,5,3.923,5.045,2,0.434,0.000
2,4,6,3.923,5.045,2,7.895,0.000
2,4,7,3.923,5.045,2,-1.532,0.000
2,4,8,3.923,5.045,2,8.173,0.000
2,4,9,3.923,5.045,2,7.231,0.000
2,4,10,3.923,5.045,2,3.093,0.000
2,5,1,-11.332,-7.050,1,-14.779,0.000
2,5,2,-11.332,-7.050,2,-5.103,0.000
2,5,3,-11.332,-7.050,2,-7.521,0.000
2,5,4,-11.332,-7.050,2,-2.924,0.000
2,5,5,-11.332,-7.050,2,-5.695,0.000
2,5,6,-11.332,-7.050,2,-9.258,0.000
2,5,7,-11.332,-7.050,2,-5.824,0.000
2,5,8,-11.332,-7.050,2,-10.151,0.000
2,5,9,-11.332,-7.050,2,-6.566,0.000
2,5,10,-11.332,-7.050,2,-5.562,0.000
2,6,1,20.512,-2.175,1,21.101,0.000
2,6,2,20.512,-2.175,1,21.787,0.000
2,6,3,20.512,-2.175,1,24.777,0.000
2,6,4,20.512,-2.175,1,26.170,0.000
2,6,5,20.512,-2.175,1,16.785,0.000
2,6,6,20.512,-2.175,1,20.053,0.000
2,6,7,20.512,-2.175,1,17.503,0.000
2,6,8,20.512,-2.175,1,20.249,0.000
2,6,9,20.512,-2.175,1,18.228,0.000
2,6,10,20.512,-2.175,1,18.021,0.000
2,7,1,9.358,10.348,1,15.862,0.000
2,7,2,9.358,10.348,1,8.937,0.000
2,7,3,9.358,10.348,1,10.798,0.000
2,7,4,9.358,10.348,1,8.110,0.000
2,7,5,9.358,10.348,1,5.174,0.000
2,7,6,9.358,10.348,1,9.121,0.000
2,7,7,9.358,10.348,1,11.926,0.000
2,7,8,9.358,10.348,1,16.808,0.000
2,7,9,9.358,10.348,1,5.261,0.000
2,7,10,9.358,10.348,1,13.434,0.000
2,8,1,7.528,-0.225,1,5.325,0.000
2,8,2,7.528,-0.225,2,3.531,0.000
2,8,3,7.528,-0.225,1,9.923,0.000
2,8,4,7.528,-0.225,1,5.305,0.000
2,8,5,7.528,-0.225,1,10.739,0.000
2,8,6,7.528,-0.225,1,8.924,0.000
2,8,7,7.528,-0.225,1,7.564,0.000
2,8,8,7.528,-0.225,1,14.189,0.000
2,8,9,7.528,-0.225,1,9.903,0.000
2,8,10,7.528,-0.225,1,6.481,0.000
2,9,1,-2.461,4.859,1,-1.923,0.000
2,9,2,-2.461,4.859,2,8.899,0.000
2,9,3,-2.461,4.859,2,6.215,0.000
2,9,4,-2.461,4.859,2,4.934,0.000
2,9,5,-2.461,4.859,2,-1.108,0.000
2,9,6,-2.461,4.859,2,2.048,0.000
2,9,7,-2.461,4.859,2,4.731,0.000
2,9,8,-2.461,4.859,2,6.487,0.000
2,9,9,-2.461,4.859,2,10.824,0.000
2,9,10,-2.461,4.859,2,2.492,0.000
2,10,1,-3.297,12.948,1,-4.635,0.000
2,10,2,-3.297,12.948,2,12.889,0.000
2,10,3,-3.297,12.948,2,11.033,0.000
2,10,4,-3.297,12.948,2,11.319,0.000
2,10,5,-3.297,12.948,2,9.712,0.000
2,10,6,-3.297,12.948,2,11.749,0.000
2,10,7,-3.297,12.948,2,12.373,0.000
2,10,8,-3.297,12.948,2,12.620,0.000
2,10,9,-3.297,12.948,2,8.840,0.000
2,10,10,-3.297,12.948,2,18.257,0.000
2,11,1,-5.208,-4.501,1,-6.822,0.000
2,11,2,-5.208,-4.501,2,-1.003,0.000
2,11,3,-5.208,-4.501,2,-6.047,0.000
2,11,4,-5.208,-4.501,1,-5.069,0.000
2,11,5,-5.208,-4.501,1,-7.040,0.000
2,11,6,-5.208,-4.501,1,-4.227,0.000
2,11,7,-5.208,-4.501,1,0.541,0.000
2,11,8,-5.208,-4.501,1,-4.713,0.000
2,11,9,-5.208,-4.501,1,-3.991,0.000
2,11,10,-5.208,-4.501,1,1.057,0.000
2,12,1,2.535,-17.047,1,5.615,0.000
2,12,2,2.535,-17.047,1,0.607,0.000
2,12,3,2.535,-17.047,2,-22.938,0.000
2,12,4,2.535,-17.047,1,9.813,0.000
2,12,5,2.535,-17.047,1,6.494,0.000
2,12,6,2.535,-17.047,1,0.945,0.000
2,12,7,2.535,-17.047,1,-0.264,0.000
2,12,8,2.535,-17.047,1,0.068,0.000
2,12,9,2.535,-17.047,1,1.796,0.000
2,12,10,2.535,-17.047,1,6.419,0.000
2,13,1,18.875,-3.691,1,19.277,0.000
2,13,2,18.875,-3.691,1,20.196,0.000
2,13,3,18.875,-3.691,1,20.867,0.000
2,13,4,18.875,-3.691,1,13.834,0.000
2,13,5,18.875,-3.691,1,18.707,0.000
2,13,6,18.875,-3.691,1,16.439,0.000
2,13,7,18.875,-3.691,1,16.356,0.000
2,13,8,18.875,-3.691,1,17.443,0.000
2,13,9,18.875,-3.691,1,25.381,0.000
2,13,10,18.875,-3.691,1,18.555,0.000
2,14,1,-9.868,8.370,1,-14.247,0.000
2,14,2,-9.868,8.370,2,13.097,0.000
2,14,3,-9.868,8.370,2,14.955,0.000
2,14,4,-9.868,8.370,2,11.692,0.000
2,14,5,-9.868,8.370,2,12.493,0.000
2,14,6,-9.868,8.370,2,5.344,0.000
2,14,7,-9.868,8.370,2,10.776,0.000
2,14,8,-9.868,8.370,2,9.532,0.000
2,14,9,-9.868,8.370,2,11.298,0.000
2,14,10,-9.868,8.370,2,7.140,0.000
2,15,1,1.415,15.232,1,0.474,0.000
2,15,2,1.415,15.232,2,17.919,0.000
2,15,3,1.415,15.232,2,13.422,0.000
2,15,4,1.415,15.232,2,11.358,0.000
2,15,5,1.415,15.232,2,15.444,0.000
2,15,6,1.415,15.232,2,17.086,0.000
2,15,7,1.415,15.232,2,12.206,0.000
2,15,8,1.415,15.232,2,14.169,0.000
2,15,9,1.415,15.232,2,15.914,0.000
2,15,10,1.415,15.232,2,13.732,0.000
2,16,1,1.915,5.076,1,-2.401,0.000
2,16,2,1.915,5.076,2,8.946,0.000
2,16,3,1.915,5.076,2,5.383,0.000
2,16,4,1.915,5.076,2,6.914,0.000
2,16,5,1.915,5.076,2,8.095,0.000
2,16,6,1.915,5.076,2,4.974,0.000
2,16,7,1.915,5.076,2,4.327,0.000
2,16,8,1.915,5.076,2,1.506,0.000
2,16,9,1.915,5.076,2,6.842,0.000
2,16,10,1.915,5.076,2,2.429,0.000
2,17,1,5.530,-0.455,1,1.189,0.000
2,17,2,5.530,-0.455,2,-3.714,0.000
2,17,3,5.530,-0.455,1,3.455,0.000
2,17,4,5.530,-0.455,1,6.019,0.000
2,17,5,5.530,-0.455,1,10.168,0.000
2,17,6,5.530,-0.455,1,10.543,0.000
2,17,7,5.530,-0.455,1,7.379,0.000
2,17,8,5.530,-0.455,1,-5.944,0.000
2,17,9,5.530,-0.455,1,2.169,0.000
2,17,10,5.530,-0.455,1,3.117,0.000
2,18,1,-0.903,-9.863,1,-4.233,0.000
2,18,2,-0.903,-9.863,2,-10.974,0.000
2,18,3,-0.903,-9.863,1,5.221,0.000
2,18,4,-0.903,-9.863,1,-1.155,0.000
2,18,5,-0.903,-9.863,1,-1.953,0.000
2,18,6,-0.903,-9.863,1,0.887,0.000
2,18,7,-0.903,-9.863,1,-1.514,0.000
2,18,8,-0.903,-9.863,1,2.954,0.000
2,18,9,-0.903,-9.863,1,4.936,0.000
2,18,10,-0.903,-9.863,1,-3.151,0.000
2,19,1,-9.942,2.522,1,-7.022,0.000
2,19,2,-9.942,2.522,2,-0.623,0.000
2,19,3,-9.942,2.522,2,0.185,0.000
2,19,4,-9.942,2.522,2,0.563,0.000
2,19,5,-9.942,2.522,2,6.684,0.000
2,19,6,-9.942,2.522,2,2.434,0.000
2,19,7,-9.942,2.522,2,3.190,0.000
2,19,8,-9.942,2.522,2,-2.187,0.000
2,19,9,-9.942,2.522,2,-0.306,0.000
2,19,10,-9.942,2.522,2,-0.322,0.000
2,20,1,-13.056,16.303,1,-8.805,0.000
2,20,2,-13.056,16.303,2,21.086,0.000
2,20,3,-13.056,16.303,2,11.277,0.000
2,20,4,-13.056,16.303,2,18.151,0.000
2,20,5,-13.056,16.303,2,15.360,0.000
2,20,6,-13.056,16.303,2,14.330,0.000
2,20,7,-13.056,16.303,2,17.106,0.000
2,20,8,-13.056,16.303,2,17.877,0.000
2,20,9,-13.056,16.303,2,18.599,0.000
2,20,10,-13.056,16.303,2,20.459,0.000
2,21,1,8.271,1.803,1,11.867,0.000
2,21,2,8.271,1.803,1,7.642,0.000
2,21,3,8.271,1.803,1,11.266,0.000
2,21,4,8.271,1.803,1,-1.153,0.000
2,21,5,8.271,1.803,1,4.883,0.000
2,21,6,8.271,1.803,1,8.268,0.000
2,21,7,8.271,1.803,1,11.852,0.000
2,21,8,8.271,1.803,1,11.263,0.000
2,21,9,8.271,1.803,1,8.305,0.000
2,21,10,8.271,1.803,1,9.229,0.000
2,22,1,14.315,-12.608,1,9.393,0.000
2,22,2,14.315,-12.608,1,13.386,0.000
2,22,3,14.315,-12.608,1,14.475,0.000
2,22,4,14.315,-12.608,1,9.406,0.000
2,22,5,14.315,-12.608,1,16.470,0.000
2,22,6,14.315,-12.608,1,12.670,0.000
2,22,7,14.315,-12.608,1,12.427,0.000
2,22,8,14.315,-12.608,1,10.904,0.000
2,22,9,14.315,-12.608,1,9.913,0.000
2,22,10,14.315,-12.608,1,13.558,0.000
2,23,1,0.859,1.975,1,2.156,0.000
2,23,2,0.859,1.975,2,3.158,0.000
2,23,3,0.859,1.975,2,-0.349,0.000
2,23,4,0.859,1.975,1,1.819,0.000
2,23,5,0.859,1.975,1,1.970,0.000
2,23,6,0.859,1.975,1,-5.591,0.000
2,23,7,0.859,1.975,1,-0.110,0.000
2,23,8,0.859,1.975,1,-0.739,0.000
2,23,9,0.859,1.975,1,-2.402,0.000
2,23,10,0.859,1.975,1,-2.807,0.000
2,24,1,7.535,-16.293,1,4.271,0.000
2,24,2,7.535,-16.293,2,-17.065,0.000
2,24,3,7.535,-16.293,1,4.857,0.000
2,24,4,7.535,-16.293,1,6.599,0.000
2,24,5,7.535,-16.293,1,7.378,0.000
2,24,6,7.535,-16.293,1,12.046,0.000
2,24,7,7.535,-16.293,1,6.389,0.000
2,24,8,7.535,-16.293,1,10.424,0.000
2,24,9,7.535,-16.293,1,8.494,0.000
2,24,10,7.535,-16.293,1,6.777,0.000
2,25,1,9.718,-4.995,1,10.559,0.000
2,25,2,9.718,-4.995,1,18.173,0.000
2,25,3,9.718,-4.995,1,10.525,0.000
2,25,4,9.718,-4.995,1,10.581,0.000
2,25,5,9.718,-4.995,1,11.176,0.000
2,25,6,9.718,-4.995,1,11.241,0.000
2,25,7,9.718,-4.995,1,9.305,0.000
2,25,8,9.718,-4.995,1,4.524,0.000
2,25,9,9.718,-4.995,1,10.366,0.000
2,25,10,9.718,-4.995,1,8.751,0.000
2,26,1,7.888,0.091,1,6.727,0.000
2,26,2,7.888,0.091,1,8.910,0.000
2,26,3,7.888,0.091,1,9.376,0.000
2,26,4,7.888,0.091,2,-2.037,0.000
2,26,5,7.888,0.091,1,8.216,0.000
2,26,6,7.888,0.091,1,10.386,0.000
2,26,7,7.888,0.091,1,6.566,0.000
2,26,8,7.888,0.091,1,15.221,0.000
2,26,9,7.888,0.091,1,7.545,0.000
2,26,10,7.888,0.091,1,9.315,0.000
2,27,1,-6.980,-10.563,1,-3.465,0.000
2,27,2,-6.980,-10.563,2,-14.444,0.000
2,27,3,-6.980,-10.563,1,-5.761,0.000
2,27,4,-6.980,-10.563,1,-2.143,0.000
2,27,5,-6.980,-10.563,1,-11.849,0.000
2,27,6,-6.980,-10.563,1,-4.528,0.000
2,27,7,-6.980,-10.563,1,-9.067,0.000
2,27,8,-6.980,-10.563,1,-6.744,0.000
2,27,9,-6.980,-10.563,1,-11.966,0.000
2,27,10,-6.980,-10.563,1,-1.939,0.000
2,28,1,-4.223,-2.733,1,-7.130,0.000
2,28,2,-4.223,-2.733,2,0.903,0.000
2,28,3,-4.223,-2.733,2,0.280,0.000
2,28,4,-4.223,-2.733,2,-7.950,0.000
2,28,5,-4.223,-2.733,2,-3.020,0.000
2,28,6,-4.223,-2.733,2,-3.525,0.000
2,28,7,-4.223,-2.733,2,-0.199,0.000
2,28,8,-4.223,-2.733,2,0.290,0.000
2,28,9,-4.223,-2.733,2,-2.248,0.000
2,28,10,-4.223,-2.733,2,0.904,0.000
2,29,1,-1.097,-5.203,1,-0.917,0.000
2,29,2,-1.097,-5.203,2,-1.550,0.000
2,29,3,-1.097,-5.203,1,1.113,0.000
2,29,4,-1.097,-5.203,1,-4.569,0.000
2,29,5,-1.097,-5.203,1,-3.530,0.000
2,29,6,-1.097,-5.203,1,-0.813,0.000
2,29,7,-1.097,-5.203,1,5.815,0.000
2,29,8,-1.097,-5.203,1,-4.112,0.000
2,29,9,-1.097,-5.203,1,6.048,0.000
2,29,10,-1.097,-5.203,1,-0.195,0.000
2,30,1,-8.986,-12.200,1,-8.849,0.000
2,30,2,-8.986,-12.200,2,-14.320,0.000
2,30,3,-8.986,-12.200,1,-10.084,0.000
2,30,4,-8.986,-12.200,2,-12.950,0.000
2,30,5,-8.986,-12.200,1,-10.139,0.000
2,30,6,-8.986,-12.200,1,-11.580,0.000
2,30,7,-8.986,-12.200,1,3.386,0.000
2,30,8,-8.986,-12.200,1,-9.702,0.000
2,30,9,-8.986,-12.200,1,-7.136,0.000
2,30,10,-8.986,-12.200,1,-7.806,0.000
2,31,1,-20.133,-8.032,1,-23.265,0.000
2,31,2,-20.133,-8.032,2,-6.576,0.000
2,31,3,-20.133,-8.032,2,-5.243,0.000
2,31,4,-20.133,-8.032,2,-8.176,0.000
2,31,5,-20.133,-8.032,2,-10.433,0.000
2,31,6,-20.133,-8.032,2,-10.117,0.000
2,31,7,-20.133,-8.032,2,-4.114,0.000
2,31,8,-20.133,-8.032,2,-6.433,0.000
2,31,9,-20.133,-8.032,2,-6.602,0.000
2,31,10,-20.133,-8.032,2,-9.374,0.000
2,32,1,-13.578,1.852,1,-15.101,0.000
2,32,2,-13.578,1.852,2,2.591,0.000
2,32,3,-13.578,1.852,2,0.551,0.000
2,32,4,-13.578,1.852,2,6.269,0.000
2,32,5,-13.578,1.852,2,1.761,0.000
2,32,6,-13.578,1.852,2,4.619,0.000
2,32,7,-13.578,1.852,2,4.093,0.000
2,32,8,-13.578,1.852,2,1.771,0.000
2,32,9,-13.578,1.852,2,0.841,0.000
2,32,10,-13.578,1.852,2,3.419,0.000
2,33,1,-16.798,-1.568,1,-16.802,0.000
2,33,2,-16.798,-1.568,2,1.936,0.000
2,33,3,-16.798,-1.568,2,-4.223,0.000
2,33,4,-16.798,-1.568,2,-7.884,0.000
2,33,5,-16.798,-1.568,2,-5.674,0.000
2,33,6,-16.798,-1.568,2,-1.520,0.000
2,33,7,-16.798,-1.568,2,-3.246,0.000
2,33,8,-16.798,-1.568,2,-3.935,0.000
2,33,9,-16.798,-1.568,2,-6.517,0.000
2,33,10,-16.798,-1.568,2,-2.045,0.000
2,34,1,-6.667,2.379,1,-10.648,0.000
2,34,2,-6.667,2.379,2,-0.743,0.000
2,34,3,-6.667,2.379,2,0.386,0.000
2,34,4,-6.667,2.379,2,1.437,0.000
2,34,5,-6.667,2.379,2,-1.339,0.000
2,34,6,-6.667,2.379,2,1.356,0.000
2,34,7,-6.667,2.379,2,6.660,0.000
2,34,8,-6.667,2.379,2,1.467,0.000
2,34,9,-6.667,2.379,2,4.626,0.000
2,34,10,-6.667,2.379,2,-0.168,0.000
2,35,1,-4.664,0.717,1,-3.477,0.000
2,35,2,-4.664,0.717,2,-4.487,0.000
2,35,3,-4.664,0.717,1,-7.859,0.000
2,35,4,-4.664,0.717,1,-2.468,0.000
2,35,5,-4.664,0.717,1,1.056,0.000
2,35,6,-4.664,0.717,1,-1.947,0.000
2,35,7,-4.664,0.717,1,1.493,0.000
2,35,8,-4.664,0.717,1,-4.216,0.000
2,35,9,-4.664,0.717,1,1.491,0.000
2,35,10,-4.664,0.717,1,-11.113,0.000
2,36,1,10.478,-2.261,1,9.892,0.000
2,36,2,10.478,-2.261,1,9.201,0.000
2,36,3,10.478,-2.261,1,10.857,0.000
2,36,4,10.478,-2.261,1,12.314,0.000
2,36,5,10.478,-2.261,1,13.185,0.000
2,36,6,10.478,-2.261,1,14.165,0.000
2,36,7,10.478,-2.261,1,8.120,0.000
2,36,8,10.478,-2.261,1,10.425,0.000
2,36,9,10.478,-2.261,1,7.887,0.000
2,36,10,10.478,-2.261,1,13.120,0.000
2,37,1,6.491,3.532,1,8.021,0.000
2,37,2,6.491,3.532,1,9.899,0.000
2,37,3,6.491,3.532,1,7.045,0.000
2,37,4,6.491,3.532,1,6.554,0.000
2,37,5,6.491,3.532,1,-3.131,0.000
2,37,6,6.491,3.532,1,6.560,0.000
2,37,7,6.491,3.532,1,2.522,0.000
2,37,8,6.491,3.532,1,5.241,0.000
2,37,9,6.491,3.532,1,3.381,0.000
2,37,10,6.491,3.532,1,5.176,0.000
2,38,1,-14.961,4.182,1,-10.910,0.000
2,38,2,-14.961,4.182,2,3.089,0.000
2,38,3,-14.961,4.182,2,7.096,0.000
2,38,4,-14.961,4.182,2,5.983,0.000
2,38,5,-14.961,4.182,2,3.193,0.000
2,38,6,-14.961,4.182,2,0.071,0.000
2,38,7,-14.961,4.182,2,5.932,0.000
2,38,8,-14.961,4.182,2,1.386,0.000
2,38,9,-14.961,4.182,2,1.787,0.000
2,38,10,-14.961,4.182,2,5.200,0.000
2,39,1,-8.988,6.407,1,-16.208,0.000
2,39,2,-8.988,6.407,2,4.245,0.000
2,39,3,-8.988,6.407,2,7.235,0.000
2,39,4,-8.988,6.407,2,6.260,0.000
2,39,5,-8.988,6.407,2,4.823,0.000
2,39,6,-8.988,6.407,2,8.595,0.000
2,39,7,-8.988,6.407,2,7.243,0.000
2,39,8,-8.988,6.407,2,4.261,0.000
2,39,9,-8.988,6.407,2,8.957,0.000
2,39,10,-8.988,6.407,2,5.250,0.000
2,40,1,-2.089,-13.169,1,-2.878,0.000
2,40,2,-2.089,-13.169,2,-10.661,0.000
2,40,3,-2.089,-13.169,1,1.578,0.000
2,40,4,-2.089,-13.169,1,-1.131,0.000
2,40,5,-2.089,-13.169,1,-5.111,0.000
2,40,6,-2.089,-13.169,1,-2.712,0.000
2,40,7,-2.089,-13.169,1,1.511,0.000
2,40,8,-2.089,-13.169,1,-1.872,0.000
2,40,9,-2.089,-13.169,1,6.316,0.000
2,40,10,-2.089,-13.169,1,-1.767,0.000
2,41,1,0.919,4.057,1,0.878,0.000
2,41,2,0.919,4.057,2,3.615,0.000
2,41,3,0.919,4.057,2,5.914,0.000
2,41,4,0.919,4.057,2,6.467,0.000
2,41,5,0.919,4.057,2,-0.046,0.000
2,41,6,0.919,4.057,2,6.475,0.000
2,41,7,0.919,4.057,2,7.192,0.000
2,41,8,0.919,4.057,2,5.467,0.000
2,41,9,0.919,4.057,2,4.246,0.000
2,41,10,0.919,4.057,2,0.043,0.000
2,42,1,-8.265,-6.504,1,-7.542,0.000
2,42,2,-8.265,-6.504,2,-10.073,0.000
2,42,3,-8.265,-6.504,1,-12.500,0.000
2,42,4,-8.265,-6.504,2,-6.402,0.000
2,42,5,-8.265,-6.504,1,-8.166,0.000
2,42,6,-8.265,-6.504,1,-8.297,0.000
2,42,7,-8.265,-6.504,1,-6.796,0.000
2,42,8,-8.265,-6.504,1,-7.899,0.000
2,42,9,-8.265,-6.504,1,-5.294,0.000
2,42,10,-8.265,-6.504,1,-10.350,0.000
2,43,1,5.885,-2.053,1,10.900,0.000
2,43,2,5.885,-2.053,1,7.010,0.000
2,43,3,5.885,-2.053,1,5.644,0.000
2,43,4,5.885,-2.053,1,9.817,0.000
2,43,5,5.885,-2.053,1,6.907,0.000
2,43,6,5.885,-2.053,1,4.998,0.000
2,43,7,5.885,-2.053,1,8.526,0.000
2,43,8,5.885,-2.053,1,4.586,0.000
2,43,9,5.885,-2.053,1,4.641,0.000
2,43,10,5.885,-2.053,1,3.330,0.000
2,44,1,-10.661,-3.103,1,-6.191,0.000
2,44,2,-10.661,-3.103,2,-3.153,0.000
2,44,3,-10.661,-3.103,2,-3.931,0.000
2,44,4,-10.661,-3.103,1,-6.797,0.000
2,44,5,-10.661,-3.103,1,-2.982,0.000
2,44,6,-10.661,-3.103,1,-13.073,0.000
2,44,7,-10.661,-3.103,1,-12.175,0.000
2,44,8,-10.661,-3.103,1,-10.137,0.000
2,44,9,-10.661,-3.103,1,-5.056,0.000
2,44,10,-10.661,-3.103,1,-9.981,0.000
2,45,1,-10.903,9.794,1,-14.920,0.000
2,45,2,-10.903,9.794,2,9.458,0.000
2,45,3,-10.903,9.794,2,12.333,0.000
2,45,4,-10.903,9.794,2,9.329,0.000
2,45,5,-10.903,9.794,2,7.366,0.000
2,45,6,-10.903,9.794,2,6.906,0.000
2,45,7,-10.903,9.794,2,10.441,0.000
2,45,8,-10.903,9.794,2,9.603,0.000
2,45,9,-10.903,9.794,2,5.820,0.000
2,45,10,-10.903,9.794,2,12.843,0.000
2,46,1,7.931,17.479,1,3.975,0.000
2,46,2,7.931,17.479,2,10.893,0.000
2,46,3,7.931,17.479,2,12.932,0.000
2,46,4,7.931,17.479,2,17.064,0.000
2,46,5,7.931,17.479,2,21.163,0.000
2,46,6,7.931,17.479,2,15.034,0.000
2,46,7,7.931,17.479,2,18.903,0.000
2,46,8,7.931,17.479,2,13.354,0.000
2,46,9,7.931,17.479,2,15.718,0.000
2,46,10,7.931,17.479,2,17.474,0.000
2,47,1,7.387,8.795,1,7.171,0.000
2,47,2,7.387,8.795,1,10.844,0.000
2,47,3,7.387,8.795,1,6.358,0.000
2,47,4,7.387,8.795,1,8.599,0.000
2,47,5,7.387,8.795,1,8.571,0.000
2,47,6,7.387,8.795,1,9.392,0.000
2,47,7,7.387,8.795,1,11.716,0.000
2,47,8,7.387,8.795,1,7.220,0.000
2,47,9,7.387,8.795,1,6.594,0.000
2,47,10,7.387,8.795,1,-0.018,0.000
2,48,1,5.351,-2.177,1,0.736,0.000
2,48,2,5.351,-2.177,2,-0.137,0.000
2,48,3,5.351,-2.177,1,8.895,0.000
2,48,4,5.351,-2.177,1,4.895,0.000
2,48,5,5.351,-2.177,1,6.124,0.000
2,48,6,5.351,-2.177,1,7.491,0.000
2,48,7,5.351,-2.177,1,6.690,0.000
2,48,8,5.351,-2.177,1,3.893,0.000
2,48,9,5.351,-2.177,1,2.755,0.000
2,48,10,5.351,-2.177,1,7.241,0.000
2,49,1,9.103,6.637,1,12.446,0.000
2,49,2,9.103,6.637,1,3.510,0.000
2,49,3,9.103,6.637,1,12.306,0.000
2,49,4,9.103,6.637,1,3.027,0.000
2,49,5,9.103,6.637,1,5.835,0.000
2,49,6,9.103,6.637,1,3.031,0.000
2,49,7,9.103,6.637,1,8.684,0.000
2,49,8,9.103,6.637,1,11.482,0.000
2,49,9,9.103,6.637,1,10.905,0.000
2,49,10,9.103,6.637,1,6.091,0.000
2,50,1,-8.432,18.176,1,-7.682,0.000
2,50,2,-8.432,18.176,2,13.902,0.000
2,50,3,-8.432,18.176,2,16.209,0.000
2,50,4,-8.432,18.176,2,17.621,0.000
2,50,5,-8.432,18.176,2,23.342,0.000
2,50,6,-8.432,18.176,2,18.552,0.000
2,50,7,-8.432,18.176,2,13.638,0.000
2,50,8,-8.432,18.176,2,15.306,0.000
2,50,9,-8.432,18.176,2,19.317,0.000
2,50,10,-8.432,18.176,2,15.444,0.000
2,51,1,-5.782,10.870,1,-3.183,0.000
2,51,2,-5.782,10.870,2,10.235,0.000
2,51,3,-5.782,10.870,2,7.479,0.000
2,51,4,-5.782,10.870,2,4.205,0.000
2,51,5,-5.782,10.870,2,14.174,0.000
2,51,6,-5.782,10.870,2,14.232,0.000
2,51,7,-5.782,10.870,2,12.143,0.000
2,51,8,-5.782,10.870,2,11.170,0.000
2,51,9,-5.782,10.870,2,11.503,0.000
2,51,10,-5.782,10.870,2,12.091,0.000
2,52,1,9.476,0.330,1,7.335,0.000
2,52,2,9.476,0.330,1,6.842,0.000
2,52,3,9.476,0.330,1,8.243,0.000
2,52,4,9.476,0.330,2,3.250,0.000
2,52,5,9.476,0.330,1,7.709,0.000
2,52,6,9.476,0.330,1,3.245,0.000
2,52,7,9.476,0.330,1,7.664,0.000
2,52,8,9.476,0.330,1,16.445,0.000
2,52,9,9.476,0.330,1,10.732,0.000
2,52,10,9.476,0.330,1,7.297,0.000
2,53,1,15.027,-0.346,1,13.558,0.000
2,53,2,15.027,-0.346,1,9.705,0.000
2,53,3,15.027,-0.346,1,9.232,0.000
2,53,4,15.027,-0.346,1,20.317,0.000
2,53,5,15.027,-0.346,1,15.577,0.000
2,53,6,15.027,-0.346,1,14.451,0.000
2,53,7,15.027,-0.346,1,19.218,0.000
2,53,8,15.027,-0.346,1,14.795,0.000
2,53,9,15.027,-0.346,1,13.373,0.000
2,53,10,15.027,-0.346,1,15.989,0.000
2,54,1,0.373,4.091,1,4.173,0.000
2,54,2,0.373,4.091,2,5.965,0.000
2,54,3,0.373,4.091,2,5.974,0.000
2,54,4,0.373,4.091,2,11.249,0.000
2,54,5,0.373,4.091,2,9.942,0.000
2,54,6,0.373,4.091,2,8.083,0.000
2,54,7,0.373,4.091,2,5.949,0.000
2,54,8,0.373,4.091,2,2.772,0.000
2,54,9,0.373,4.091,2,-0.518,0.000
2,54,10,0.373,4.091,2,4.047,0.000
2,55,1,-14.995,-0.794,1,-13.650,0.000
2,55,2,-14.995,-0.794,2,-2.288,0.000
2,55,3,-14.995,-0.794,2,3.705,0.000
2,55,4,-14.995,-0.794,2,-3.979,0.000
2,55,5,-14.995,-0.794,2,3.538,0.000
2,55,6,-14.995,-0.794,2,1.600,0.000
2,55,7,-14.995,-0.794,2,-0.602,0.000
2,55,8,-14.995,-0.794,2,0.352,0.000
2,55,9,-14.995,-0.794,2,1.486,0.000
2,55,10,-14.995,-0.794,2,0.845,0.000
2,56,1,-7.661,5.359,1,-5.068,0.000
2,56,2,-7.661,5.359,2,-0.440,0.000
2,56,3,-7.661,5.359,2,2.898,0.000
2,56,4,-7.661,5.359,2,6.226,0.000
2,56,5,-7.661,5.359,2,3.441,0.000
2,56,6,-7.661,5.359,2,8.050,0.000
2,56,7,-7.661,5.359,2,-0.205,0.000
2,56,8,-7.661,5.359,2,6.813,0.000
2,56,9,-7.661,5.359,2,2.318,0.000
2,56,10,-7.661,5.359,2,9.797,0.000
2,57,1,-5.283,8.388,1,-5.679,0.000
2,57,2,-5.283,8.388,2,6.844,0.000
2,57,3,-5.283,8.388,2,13.573,0.000
2,57,4,-5.283,8.388,2,4.806,0.000
2,57,5,-5.283,8.388,2,7.774,0.000
2,57,6,-5.283,8.388,2,9.149,0.000
2,57,7,-5.283,8.388,2,8.205,0.000
2,57,8,-5.283,8.388,2,6.118,0.000
2,57,9,-5.283,8.388,2,13.764,0.000
2,57,10,-5.283,8.388,2,12.345,0.000
2,58,1,-17.762,-20.075,1,-12.193,0.000
2,58,2,-17.762,-20.075,2,-17.483,0.000
2,58,3,-17.762,-20.075,1,-15.802,0.000
2,58,4,-17.762,-20.075,2,-19.782,0.000
2,58,5,-17.762,-20.075,1,-22.330,0.000
2,58,6,-17.762,-20.075,1,-18.849,0.000
2,58,7,-17.762,-20.075,1,-14.665,0.000
2,58,8,-17.762,-20.075,1,-16.893,0.000
2,58,9,-17.762,-20.075,1,-17.234,0.000
2,58,10,-17.762,-20.075,1,-12.675,0.000
2,59,1,-11.743,-3.425,1,-13.237,0.000
2,59,2,-11.743,-3.425,2,-7.897,0.000
2,59,3,-11.743,-3.425,2,-1.352,0.000
2,59,4,-11.743,-3.425,2,0.652,0.000
2,59,5,-11.743,-3.425,2,1.245,0.000
2,59,6,-11.743,-3.425,2,-4.728,0.000
2,59,7,-11.743,-3.425,2,-2.832,0.000
2,59,8,-11.743,-3.425,2,3.115,0.000
2,59,9,-11.743,-3.425,2,-4.495,0.000
2,59,10,-11.743,-3.425,2,-4.961,0.000
2,60,1,-15.954,-0.302,1,-17.930,0.000
2,60,2,-15.954,-0.302,2,8.829,0.000
2,60,3,-15.954,-0.302,2,-1.479,0.000
2,60,4,-15.954,-0.302,2,1.595,0.000
2,60,5,-15.954,-0.302,2,5.011,0.000
2,60,6,-15.954,-0.302,2,2.400,0.000
2,60,7,-15.954,-0.302,2,2.408,0.000
2,60,8,-15.954,-0.302,2,-6.354,0.000
2,60,9,-15.954,-0.302,2,2.862,0.000
2,60,10,-15.954,-0.302,2,-1.556,0.000
2,61,1,-14.929,-3.584,1,-13.609,0.000
2,61,2,-14.929,-3.584,2,1.205,0.000
2,61,3,-14.929,-3.584,2,-0.177,0.000
2,61,4,-14.929,-3.584,2,-4.099,0.000
2,61,5,-14.929,-3.584,2,0.764,0.000
2,61,6,-14.929,-3.584,2,-5.153,0.000
2,61,7,-14.929,-3.584,2,-1.967,0.000
2,61,8,-14.929,-3.584,2,-4.513,0.000
2,61,9,-14.929,-3.584,2,-1.243,0.000
2,61,10,-14.929,-3.584,2,-1.993,0.000
2,62,1,2.550,1.545,1,0.931,0.000
2,62,2,2.550,1.545,2,5.683,0.000
2,62,3,2.550,1.545,2,3.993,0.000
2,62,4,2.550,1.545,2,2.475,0.000
2,62,5,2.550,1.545,2,-2.976,0.000
2,62,6,2.550,1.545,2,1.339,0.000
2,62,7,2.550,1.545,2,-1.037,0.000
2,62,8,2.550,1.545,2,5.337,0.000
2,62,9,2.550,1.545,2,4.490,0.000
2,62,10,2.550,1.545,2,7.232,0.000
2,63,1,-3.677,3.790,1,-3.785,0.000
2,63,2,-3.677,3.790,2,8.162,0.000
2,63,3,-3.677,3.790,2,0.965,0.000
2,63,4,-3.677,3.790,2,-1.828,0.000
2,63,5,-3.677,3.790,2,-0.020,0.000
2,63,6,-3.677,3.790,2,-2.628,0.000
2,63,7,-3.677,3.790,2,3.879,0.000
2,63,8,-3.677,3.790,2,7.911,0.000
2,63,9,-3.677,3.790,2,1.764,0.000
2,63,10,-3.677,3.790,2,2.226,0.000
2,64,1,1.480,16.492,1,1.203,0.000
2,64,2,1.480,16.492,2,19.144,0.000
2,64,3,1.480,16.492,2,13.512,0.000
2,64,4,1.480,16.492,2,20.022,0.000
2,64,5,1.480,16.492,2,20.587,0.000
2,64,6,1.480,16.492,2,12.465,0.000
2,64,7,1.480,16.492,2,14.139,0.000
2,64,8,1.480,16.492,2,15.492,0.000
2,64,9,1.480,16.492,2,21.273,0.000
2,64,10,1.480,16.492,2,12.913,0.000
2,65,1,6.916,-1.201,1,8.826,0.000
2,65,2,6.916,-1.201,1,11.084,0.000
2,65,3,6.916,-1.201,1,9.668,0.000
2,65,4,6.916,-1.201,1,6.416,0.000
2,65,5,6.916,-1.201,1,4.525,0.000
2,65,6,6.916,-1.201,1,3.798,0.000
2,65,7,6.916,-1.201,1,7.532,0.000
2,65,8,6.916,-1.201,1,6.407,0.000
2,65,9,6.916,-1.201,1,7.601,0.000
2,65,10,6.916,-1.201,1,8.312,0.000
2,66,1,-3.028,2.530,1,-1.122,0.000
2,66,2,-3.028,2.530,2,0.803,0.000
2,66,3,-3.028,2.530,2,3.545,0.000
2,66,4,-3.028,2.530,2,0.962,0.000
2,66,5,-3.028,2.530,2,3.177,0.000
2,66,6,-3.028,2.530,2,3.866,0.000
2,66,7,-3.028,2.530,2,9.453,0.000
2,66,8,-3.028,2.530,2,0.924,0.000
2,66,9,-3.028,2.530,2,2.291,0.000
2,66,10,-3.028,2.530,2,0.210,0.000
2,67,1,10.743,4.951,1,10.936,0.000
2,67,2,10.743,4.951,1,12.290,0.000
2,67,3,10.743,4.951,1,12.189,0.000
2,67,4,10.743,4.951,1,15.574,0.000
2,67,5,10.743,4.951,1,9.038,0.000
2,67,6,10.743,4.951,1,9.236,0.000
2,67,7,10.743,4.951,1,10.216,0.000
2,67,8,10.743,4.951,1,8.113,0.000
2,67,9,10.743,4.951,1,10.651,0.000
2,67,10,10.743,4.951,1,13.654,0.000
2,68,1,2.035,-2.895,1,5.433,0.000
2,68,2,2.035,-2.895,2,3.269,0.000
2,68,3,2.035,-2.895,1,-1.663,0.000
2,68,4,2.035,-2.895,1,2.233,0.000
2,68,5,2.035,-2.895,1,-4.643,0.000
2,68,6,2.035,-2.895,1,0.992,0.000
2,68,7,2.035,-2.895,1,-1.638,0.000
2,68,8,2.035,-2.895,1,1.112,0.000
2,68,9,2.035,-2.895,1,5.717,0.000
2,68,10,2.035,-2.895,1,0.314,0.000
2,69,1,-6.678,-16.457,1,-12.102,0.000
2,69,2,-6.678,-16.457,2,-17.326,0.000
2,69,3,-6.678,-16.457,1,-3.713,0.000
2,69,4,-6.678,-16.457,2,-15.409,0.000
2,69,5,-6.678,-16.457,1,-6.452,0.000
2,69,6,-6.678,-16.457,1,-7.961,0.000
2,69,7,-6.678,-16.457,1,-10.015,0.000
2,69,8,-6.678,-16.457,1,-8.051,0.000
2,69,9,-6.678,-16.457,1,-5.635,0.000
2,69,10,-6.678,-16.457,1,-5.302,0.000
2,70,1,6.557,-9.621,1,10.452,0.000
2,70,2,6.557,-9.621,1,8.710,0.000
2,70,3,6.557,-9.621,1,6.429,0.000
2,70,4,6.557,-9.621,1,8.717,0.000
2,70,5,6.557,-9.621,1,1.911,0.000
2,70,6,6.557,-9.621,1,8.832,0.000
2,70,7,6.557,-9.621,1,12.118,0.000
2,70,8,6.557,-9.621,1,5.855,0.000
2,70,9,6.557,-9.621,1,3.921,0.000
2,70,10,6.557,-9.621,1,1.040,0.000
2,71,1,-0.635,-0.984,1,1.525,0.000
2,71,2,-0.635,-0.984,2,-7.247,0.000
2,71,3,-0.635,-0.984,1,4.818,0.000
2,71,4,-0.635,-0.984,1,-2.529,0.000
2,71,5,-0.635,-0.984,1,0.961,0.000
2,71,6,-0.635,-0.984,1,-0.428,0.000
2,71,7,-0.635,-0.984,1,0.022,0.000
2,71,8,-0.635,-0.984,1,-0.446,0.000
2,71,9,-0.635,-0.984,1,-2.604,0.000
2,71,10,-0.635,-0.984,1,-2.316,0.000
2,72,1,-12.505,-2.260,1,-15.519,0.000
2,72,2,-12.505,-2.260,2,-5.174,0.000
2,72,3,-12.505,-2.260,2,-2.045,0.000
2,72,4,-12.505,-2.260,2,-5.573,0.000
2,72,5,-12.505,-2.260,2,0.153,0.000
2,72,6,-12.505,-2.260,2,-1.099,0.000
2,72,7,-12.505,-2.260,2,2.619,0.000
2,72,8,-12.505,-2.260,2,-5.308,0.000
2,72,9,-12.505,-2.260,2,-1.598,0.000
2,72,10,-12.505,-2.260,2,-3.037,0.000
2,73,1,-5.402,9.009,1,-2.471,0.000
2,73,2,-5.402,9.009,2,12.861,0.000
2,73,3,-5.402,9.009,2,8.991,0.000
2,73,4,-5.402,9.009,2,15.208,0.000
2,73,5,-5.402,9.009,2,9.007,0.000
2,73,6,-5.402,9.009,2,10.060,0.000
2,73,7,-5.402,9.009,2,8.469,0.000
2,73,8,-5.402,9.009,2,9.631,0.000
2,73,9,-5.402,9.009,2,14.264,0.000
2,73,10,-5.402,9.009,2,10.202,0.000
2,74,1,-16.081,-0.114,1,-12.851,0.000
2,74,2,-16.081,-0.114,2,0.807,0.000
2,74,3,-16.081,-0.114,2,-2.204,0.000
2,74,4,-16.081,-0.114,2,1.330,0.000
2,74,5,-16.081,-0.114,2,3.926,0.000
2,74,6,-16.081,-0.114,2,4.354,0.000
2,74,7,-16.081,-0.114,2,-5.650,0.000
2,74,8,-16.081,-0.114,2,1.240,0.000
2,74,9,-16.081,-0.114,2,-6.698,0.000
2,74,10,-16.081,-0.114,2,-1.744,0.000
2,75,1,8.307,-5.349,1,5.617,0.000
2,75,2,8.307,-5.349,2,-7.208,0.000
2,75,3,8.307,-5.349,1,9.508,0.000
2,75,4,8.307,-5.349,1,4.696,0.000
2,75,5,8.307,-5.349,1,8.249,0.000
2,75,6,8.307,-5.349,1,8.404,0.000
2,75,7,8.307,-5.349,1,8.910,0.000
2,75,8,8.307,-5.349,1,9.737,0.000
2,75,9,8.307,-5.349,1,10.086,0.000
2,75,10,8.307,-5.349,1,7.436,0.000
2,76,1,12.870,-6.755,1,9.841,0.000
2,76,2,12.870,-6.755,1,18.549,0.000
2,76,3,12.870,-6.755,1,12.786,0.000
2,76,4,12.870,-6.755,1,14.066,0.000
2,76,5,12.870,-6.755,1,13.598,0.000
2,76,6,12.870,-6.755,1,7.229,0.000
2,76,7,12.870,-6.755,1,10.064,0.000
2,76,8,12.870,-6.755,1,18.962,0.000
2,76,9,12.870,-6.755,1,9.591,0.000
2,76,10,12.870,-6.755,1,11.263,0.000
2,77,1,-9.207,2.772,1,-8.098,0.000
2,77,2,-9.207,2.772,2,8.622,0.000
2,77,3,-9.207,2.772,2,3.161,0.000
2,77,4,-9.207,2.772,2,0.353,0.000
2,77,5,-9.207,2.772,2,3.291,0.000
2,77,6,-9.207,2.772,2,5.156,0.000
2,77,7,-9.207,2.772,2,-1.824,0.000
2,77,8,-9.207,2.772,2,4.441,0.000
2,77,9,-9.207,2.772,2,7.475,0.000
2,77,10,-9.207,2.772,2,-1.389,0.000
2,78,1,7.087,3.758,1,9.065,0.000
2,78,2,7.087,3.758,1,12.143,0.000
2,78,3,7.087,3.758,1,6.191,0.000
2,78,4,7.087,3.758,1,4.793,0.000
2,78,5,7.087,3.758,1,10.661,0.000
2,78,6,7.087,3.758,1,8.866,0.000
2,78,7,7.087,3.758,1,3.366,0.000
2,78,8,7.087,3.758,1,12.854,0.000
2,78,9,7.087,3.758,1,7.789,0.000
2,78,10,7.087,3.758,1,5.086,0.000
2,79,1,-7.730,0.270,1,-7.897,0.000
2,79,2,-7.730,0.270,2,-1.491,0.000
2,79,3,-7.730,0.270,2,-2.188,0.000
2,79,4,-7.730,0.270,2,-1.886,0.000
2,79,5,-7.730,0.270,2,-4.257,0.000
2,79,6,-7.730,0.270,2,1.260,0.000
2,79,7,-7.730,0.270,2,0.047,0.000
2,79,8,-7.730,0.270,2,-2.136,0.000
2,79,9,-7.730,0.270,2,-0.884,0.000
2,79,10,-7.730,0.270,2,0.431,0.000
2,80,1,5.877,16.776,1,6.017,0.000
2,80,2,5.877,16.776,1,13.582,0.000
2,80,3,5.877,16.776,1,0.131,0.000
2,80,4,5.877,16.776,1,9.115,0.000
2,80,5,5.877,16.776,1,7.013,0.000
2,80,6,5.877,16.776,1,2.932,0.000
2,80,7,5.877,16.776,1,6.505,0.000
2,80,8,5.877,16.776,1,3.175,0.000
2,80,9,5.877,16.776,1,4.929,0.000
2,80,10,5.877,16.776,1,2.426,0.000
2,81,1,-1.657,-16.719,1,-3.881,0.000
2,81,2,-1.657,-16.719,2,-18.802,0.000
2,81,3,-1.657,-16.719,1,-3.348,0.000
2,81,4,-1.657,-16.719,1,-4.771,0.000
